time,dist_01.dist,s00017-2.chdata,s00017-3.chdata,s00018-1.chdata,s00018-2.chdata,s00018-3.chdata,s0011-1.chdata,s0011-2.chdata,s0011-3.chdata,s0017-1.chdata,s0017-2.chdata,s0017-3.chdata,v00013.AccX,v00013.AccY,v00013.AccZ,v00023.AccX,v00023.AccY,v00023.AccZ,v00024.AccX,v00024.AccY,v00024.AccZ,v00028.AccX,v00028.AccY,v00028.AccZ,v00029.AccX,v00029.AccY,v00029.AccZ,v00033.AccX,v00033.AccY,v00033.AccZ
0,187.531,130.59647,260.8143,0,0,0,79.38996,0,199.3436,230.47205,130.59647,260.8143,-0.00474,0.00818,-0.00768,-0.00114,-0.00628,0.00617,0.33286,-0.60602,1.31668,-0.00106,-0.00891,-0.00432,-0.57134,-0.28008,2.81284,0.00809,0.00017,-0.00515
0.02,187.531,130.78891,259.63379,0,0,0,79.401622,0,199.428692,229.98245,130.78891,259.63379,0.00775,-0.00001,0.01645,0.00609,-0.01307,0.00721,-0.16796,-0.17632,0.81228,0.00181,0.00281,0.00851,0.38351,0.49196,-1.82556,0.00298,-0.00021,0.00306
0.04,187.531,130.90633,253.308,0,0,0,79.413284,0,199.513784,228.30869,130.90633,253.308,0.00187,-0.0003,-0.00558,-0.0096,0.00234,0.00047,-0.32973,0.02221,1.07771,-0.00294,0.00109,-0.00476,0.25809,-0.08897,-3.70421,-0.00366,0.00389,0.01684
0.06,187.531,130.82753,247.37212,0,0,0,79.424945,0,199.598876,227.19902,130.82753,247.37212,-0.00426,0.00539,0.01341,0.00223,-0.00155,-0.00425,-0.18811,-0.02143,0.60385,0.00325,0.00181,0.00298,-0.54696,0.04032,0.14845,0.0196,0.01175,-0.04953
0.08,187.531,130.72723,243.29915,0,0,0,79.436607,0,199.683968,227.1723,130.72723,243.29915,0.00301,0.00051,-0.0263,-0.0076,0.0053,-0.00306,-0.25582,-0.75042,0.59285,-0.00112,-0.00158,0.0019,-0.66598,-0.55766,-0.28903,-0.02088,0.00474,-0.00865
0.1,187.531,130.57181,249.89046,0,0,0,79.448269,0,199.769061,228.46765,130.57181,249.89046,-0.01494,-0.00232,0.01254,0.00713,0.00577,-0.00349,-0.03349,-0.47837,-2.0367,0.00229,-0.01009,-0.00723,0.09586,0.90657,1.1541,0.0009,0.00271,-0.032
0.12,187.56,130.49771,256.70547,0,0,0,79.459931,0,199.854153,228.33492,130.49771,256.70547,0.00526,0.00359,-0.01143,-0.00275,-0.00291,0.00809,0.08944,0.81985,1.39682,0.00441,0.00012,0.00279,0.46703,0.48589,0.80152,0.01183,-0.00908,0.019279
0.14,187.561,130.49318,256.174906,0,0,0,79.471593,0,199.939245,227.50949,130.49318,256.174906,-0.00115,0.00699,-0.00462,0.00458,-0.00434,0.01218,-0.060988,0.561853,1.575558,0.00556,-0.00091,0.00133,0.317342,-0.843784,-2.005667,0.00303,0.0057,0.00919
0.16,187.625,130.598339,253.026318,0,0,0,79.483254,0,200.024337,228.087323,130.598339,253.026318,-0.0033,0.00318,-0.01648,-0.00195,-0.01063,0.00979,0.031689,0.164455,0.783219,0.0003,-0.00641,0.00177,-0.060355,-0.463195,-0.283951,-0.00731,0.00813,-0.01976
0.18,187.673,130.731088,251.836714,0,0,0,79.494916,0,200.109429,228.495205,130.731088,251.836714,-0.00015,-0.00606,-0.00298,0.00268,0.00722,0.02162,0.136519,-0.578471,0.627672,0.00315,-0.00044,0.00124,0.333885,0.642887,-1.886311,-0.00657,-0.00816,0.031819
0.2,187.541,130.70271,250.400527,0,0,0,79.506578,0,200.194521,227.901527,130.70271,250.400527,0.00838,-0.00894,-0.00266,0.00431,0.01258,-0.021649,0.223169,-0.836567,0.382483,-0.00134,0.00548,0.00237,-0.373412,0.161716,0.502132,-0.00049,-0.01525,-0.00318
0.22,187.546,130.631351,249.326323,0,0,0,79.51824,0,200.279613,227.669393,130.631351,249.326323,0.00475,-0.00668,-0.00529,-0.0064,0.00074,-0.01509,0.23755,-1.163046,2.03827,0.00295,0.00048,0.00373,-0.427379,-0.777909,1.450899,0.0135,0.01833,-0.02605
0.24,187.549,130.486822,251.84422,0,0,0,79.529901,0,200.364705,228.175564,130.486822,251.84422,0.00306,-0.00736,-0.00544,0.00498,0.00288,-0.0095,-0.024827,-0.439349,2.07765,-0.00704,-0.0004,-0.00593,-0.021735,0.358876,-0.814333,0.00078,0.0102,0.020609
0.26,187.492001,130.571869,255.487977,0,0,0,79.541563,0,200.449798,228.648054,130.571869,255.487977,0.00471,-0.00109,0.01416,-0.00364,-0.00881,-0.03262,-0.167458,-1.027923,-0.504449,-0.00042,-0.00469,0.00076,0.145338,0.711506,-0.857549,-0.00728,-0.01121,-0.01786
0.28,187.513,130.710768,257.089731,0,0,0,79.553225,0,200.53489,229.136464,130.710768,257.089731,0.00051,-0.00063,0.00225,-0.0005,-0.00986,0.021559,-0.079021,0.129506,-0.325242,0.01659,0.01833,0.144578,0.15534,0.631671,-0.598683,-0.01201,-0.01223,-0.00357
0.3,187.519,130.861508,252.399976,0,0,0,79.564887,0,200.619982,228.639256,130.861508,252.399976,-0.00139,0.01075,0.02284,0.00387,-0.00366,0.02436,0.300115,-0.71603,-0.574097,-0.00648,0.00991,-0.066627,0.251869,-0.738624,0.391728,0.00147,0.01612,0.01922
0.32,187.538,130.757131,249.256907,0,0,0,79.576549,0,200.705074,227.411775,130.757131,249.256907,0.00553,-0.010899,0.00629,0.00084,0.00669,0.01123,0.073453,1.005289,0.341669,-0.00613,0.00729,0.028109,0.526457,0.324677,-0.947304,0.01496,0.00259,-0.0125
0.34,187.593999,130.697741,251.404804,0,0,0,79.58821,0,200.790166,227.697427,130.697741,251.404804,-0.0045,0.00719,0.00281,-0.00129,-0.00377,0.02272,0.404876,0.265289,0.930943,0.00243,-0.01287,0.03792,-0.108232,-0.5187,-0.390867,-0.00027,-0.01443,-0.00061
0.36,187.626,130.71774,253.610614,0,0,0,79.599872,0,200.875258,227.68353,130.71774,253.610614,-0.011,0.00229,-0.00497,-0.00559,0.01365,0.00633,0.169223,0.30423,0.604794,0.00937,-0.00229,-0.029328,-0.564355,-0.622349,1.239661,-0.00639,-0.00477,0.00602
0.38,187.653,130.72452,254.703774,0,0,0,79.611534,0,200.96035,227.523624,130.72452,254.703774,-0.0034,0.00114,0.00062,-0.00208,-0.00302,-0.01304,0.086112,-0.462492,-1.048441,0.01163,0.00893,0.025229,-0.168309,0.327267,0.356661,-0.00423,0.00552,-0.00993
0.4,187.649,130.819918,252.693758,0,0,0,79.623196,0,201.045442,228.250183,130.819918,252.693758,-0.00296,-0.00346,0.00054,0.00074,-0.00672,0.00415,-0.177274,0.043738,-1.202566,-0.00581,0.00722,-0.002059,0.479085,0.199143,-0.91664,0.00142,0.0005,0.0069
0.42,187.540001,130.684133,253.136919,0,0,0,79.634858,0,201.130534,228.603732,130.684133,253.136919,0.00732,-0.01021,-0.0039,0.00118,0.00001,-0.01527,-0.285497,0.411631,-1.797776,-0.00665,-0.01061,-0.02086,0.06921,-0.431645,-0.232226,0.01113,-0.00287,-0.00378
0.44,187.453001,130.578033,252.679911,0,0,0,79.646519,0,201.215627,228.387625,130.578033,252.679911,-0.00617,0.00007,-0.00393,-0.00438,-0.01004,-0.01024,-0.119884,0.470039,-1.345421,0.0103,-0.00801,0.029109,-0.36783,-0.258594,1.060769,0.00551,0.0016,-0.01893
0.46,187.439,130.676758,251.378681,0,0,0,79.658181,0,201.300719,228.195025,130.676758,251.378681,-0.00634,-0.00099,-0.01215,-0.00112,0.00048,-0.00579,0.30569,0.366442,0.34939,0.01437,0.00288,-0.003389,-0.572525,0.497332,1.213386,-0.00948,0.00091,0.010219
0.48,187.462,130.814007,252.422825,0,0,0,79.669843,0,201.385811,228.097642,130.814007,252.422825,0.0094,0.00449,-0.00667,0.00562,0.00039,0.00308,-0.069931,-0.276955,-0.251856,-0.008069,-0.00244,-0.033269,-0.314016,1.151064,-0.0467,0.00309,-0.00039,0.00058
0.5,186.906013,130.81491,254.003742,0,0,0,79.681505,0,201.470903,228.189898,130.81491,254.003742,0.00749,-0.00235,-0.01829,-0.00634,0.01259,-0.00685,-0.002692,0.191849,-0.66987,-0.01612,-0.00862,0.022609,0.370894,-0.09884,-2.052722,0.00305,-0.00547,-0.01463
0.52,186.906,130.503807,255.791937,0,0,0,79.693167,0,201.555995,228.17508,130.503807,255.791937,-0.00097,0.00157,-0.00652,-0.00071,0.00063,0.020049,-0.0113,0.342346,-0.879925,-0.00621,0.00614,-0.010059,1.051114,0.535345,-0.974106,0.00615,0.00104,0.00301
0.539999,183.079091,130.508,252.579667,0,0,0,79.704828,0,201.641087,228.264268,130.508,252.579667,-0.00557,-0.00279,0.020189,-0.00698,0.02086,-0.009679,0.043659,0.3252,-1.411957,0.01414,0.00343,-0.00611,0.010795,-0.770779,2.334011,-0.00065,0.00352,0.00322
0.559999,183.079,130.872581,249.464044,0,0,0,79.71649,0,201.726179,228.469565,130.872581,249.464044,0.00226,-0.00242,0.001701,0.00493,0.00149,-0.00549,-0.108576,-0.07731,-0.372235,0.00572,-0.01413,0.00948,-0.620105,-1.097382,1.684735,-0.0077,0.00032,-0.00992
0.579999,183.682986,131.004267,249.815722,0,0,0,79.728152,0,201.811271,228.47403,131.004267,249.815722,-0.00237,0.01098,0.00591,-0.00611,0.00441,-0.0079,0.035427,0.277652,1.002237,-0.016429,-0.01046,-0.027839,-0.307277,0.17458,-0.595666,0.00227,-0.0001,-0.00762
0.599999,184.326985,130.799065,253.138961,0,0,0,79.739814,0,201.896364,228.503859,130.799065,253.138961,0.00387,-0.004259,0.020579,-0.00072,-0.00162,0.00424,-0.120326,0.093024,0.125121,-0.01323,0.010249,-0.008061,-0.135864,0.533791,-0.61416,-0.00175,0.00615,0.010329
0.619999,185.238978,130.571555,255.881465,0,0,0,79.751475,0,201.981456,229.010728,130.571555,255.881465,0.00655,0.00406,-0.000119,0.00411,-0.00382,-0.018759,0.149104,-0.33012,0.807194,0.004369,0.00311,0.011639,0.246591,0.152919,-1.02945,0.00311,0.01174,-0.003989
0.639999,185.239,130.516722,255.550592,0,0,0,79.763137,0,202.066548,228.826717,130.516722,255.550592,0.00245,0.00391,-0.00924,-0.00181,0.00972,-0.01989,0.540806,-0.236523,-0.344169,0.00835,-0.00895,-0.009919,0.293348,0.129951,1.171071,0.00456,-0.005949,-0.00148
0.659999,185.239,130.740472,254.672241,0,0,0,79.774799,0,202.15164,227.913713,130.740472,254.672241,0.01468,-0.00393,-0.00428,-0.00014,0.00835,-0.00973,-0.02797,0.164246,-0.127718,0.00769,-0.00789,0.004669,0.243982,-0.101352,0.991386,-0.00941,0.00145,0.013039
0.679999,185.239,130.918434,252.941862,0,0,0,79.786461,0,202.236732,226.946965,130.918434,252.941862,-0.008049,0.00311,-0.019239,-0.00508,-0.00526,0.033768,-0.257962,0.242597,-0.487537,-0.00224,0.010399,0.01238,-0.30607,-0.890632,0.340273,0.00117,0.00195,0.00123
0.699999,189.00091,130.815234,251.095996,0,0,0,79.798123,0,202.321824,227.300217,130.815234,251.095996,-0.00351,0.00357,-0.000381,0.00397,-0.00685,-0.008258,-0.306228,-0.429616,0.537223,-0.01042,0.00985,-0.009639,-0.03123,0.370595,-1.645969,0.0043,-0.0044,0.01076
0.719999,188.856003,130.620107,249.483138,0,0,0,79.809784,0,202.406916,228.002675,130.620107,249.483138,0.00519,0.00943,0.00222,-0.010149,-0.00395,-0.0039,-0.208943,-0.392771,1.09415,-0.00131,-0.005369,-0.00424,0.124334,1.041636,-1.342011,-0.00635,0.00044,0.00895
0.739999,188.856,130.578701,251.279396,0,0,0,79.821446,0,202.492008,228.069978,130.578701,251.279396,-0.0032,-0.00422,0.01226,0.012269,0.00312,-0.023629,0.216655,0.16988,0.371616,0.00545,-0.01183,-0.0048,0.263755,-0.210915,-0.49422,-0.00088,-0.0037,-0.00243
0.759999,186.647079,130.593919,253.965904,0,0,0,79.833108,0,202.577101,227.896016,130.593919,253.965904,0.00351,0.00809,-0.006019,0.00222,-0.00096,0.006709,0.239129,0.215798,1.178071,-0.00141,0.004239,-0.01878,-0.062548,-0.168442,0.748966,-0.00219,0.00493,0.0056
0.779999,186.647,130.629149,252.55455,0,0,0,79.84477,0,202.662193,228.083273,130.629149,252.55455,0.00152,0.00273,0.012679,-0.00045,0.015019,-0.013549,-0.126177,-0.144487,-0.241289,-0.00936,0.00082,-0.000561,-0.725196,-1.145115,2.084172,-0.00346,-0.00001,0.00351
0.799999,186.647,131.013196,248.07157,0,0,0,79.856432,0,202.747285,230.407847,131.013196,248.07157,-0.00107,-0.00031,-0.008039,0.00273,0.000951,0.016969,-0.426499,-0.191378,0.539342,-0.00254,-0.00075,0.00747,-0.118702,-0.435745,0.14031,0.00391,0.00222,-0.00764
0.819999,186.647,130.822547,250.252742,0,0,0,79.868093,0,202.832377,234.187195,130.822547,250.252742,0.00549,-0.0057,-0.00701,-0.00089,0.017779,-0.018109,0.770017,0.395069,0.078286,-0.00068,-0.00499,-0.00357,0.107942,0.330713,-1.304838,0.00546,0.00709,-0.00339
0.839999,188.482934,129.217537,270.09942,0,0,0,79.879755,0,202.917469,237.514241,129.217537,270.09942,-0.00227,0.00365,0.00049,0.00092,0.01075,0.015208,0.976433,0.555034,1.772099,0.00391,-0.00145,0.00096,0.582303,0.867201,-1.205964,-0.00446,-0.00054,-0.00991
0.859999,188.483,126.783367,293.712596,0,0,0,79.891417,0,203.002561,238.106609,126.783367,293.712596,0.00325,0.00038,-0.016679,-0.00528,-0.005909,0.000221,-0.336093,-1.032753,1.349375,-0.00188,-0.00086,0.00084,0.177374,0.29908,-0.584602,-0.0026,-0.00505,-0.00184
0.879999,188.483,125.449454,300.677098,0,0,0,79.903079,0,203.087653,234.640915,125.449454,300.677098,-0.00098,0.00278,0.012639,0.00346,0.00166,-0.024939,-2.030479,1.326947,-0.74578,-0.013899,0.00447,-0.00708,0.18601,-0.294542,-0.205748,0.009819,-0.0013,-0.0028
0.899999,187.055051,126.393165,291.362994,0,0,0,79.91474,0,203.172745,233.669066,126.393165,291.362994,-0.00095,0.00123,-0.012499,-0.009329,-0.00797,0.021268,-1.111474,0.024592,-2.290666,-0.00537,-0.011059,0.007769,0.093794,-0.038852,1.396414,-0.001569,0.00234,-0.00784
0.919999,187.199995,127.6468,279.103945,0,0,0,79.926402,0,203.257837,234.703671,127.6468,279.103945,0.00577,0.01098,0.010999,-0.0011,0.00023,0.0126,-0.224082,-0.306654,-3.364269,0.005139,-0.00254,0.00541,-0.042573,-0.531237,0.927352,-0.00527,0.00228,0.005609
0.939999,187.588986,128.608764,273.164683,0,0,0,79.938064,0,203.34293,233.906228,128.608764,273.164683,-0.00058,0.00708,-0.006209,0.00085,0.012369,-0.001419,0.879177,-1.13585,-1.389664,0.00627,-0.00092,-0.00302,0.472875,0.788477,-1.395419,-0.00313,-0.0003,-0.00032
0.959999,187.589,130.022763,270.962965,0,0,0,79.949726,0,203.428022,233.69389,130.022763,270.962965,0.00457,-0.00165,0.004769,-0.00056,0.00459,0.017619,1.08872,0.318481,0.680021,-0.0039,-0.00897,-0.00127,0.390184,0.978081,-2.118576,0.00132,-0.0038,-0.014979
0.979999,187.589,131.263321,259.684808,0,0,0,79.961388,0,203.513114,232.916497,131.263321,259.684808,-0.012269,-0.020299,0.00081,0.00292,-0.006889,-0.003489,0.379294,0.386007,-0.99889,0.00153,0.00124,0.012769,-0.271778,-0.557497,0.428469,-0.00431,0.00646,0.009569
0.999999,187.609575,131.966076,238.245762,0,0,0,79.973049,0,203.598206,229.14036,131.966076,238.245762,-0.00508,0.012638,-0.017979,0.00733,0.006399,-0.022749,0.265735,1.42734,-0.132381,0.00861,0.00145,-0.014819,-0.463121,-0.612417,1.752887,-0.00543,-0.00166,0.01892
1.019999,187.63015,132.188999,218.303581,0,0,0,79.389909,0,199.326415,224.419105,132.188999,218.303581,-0.00555,0.001921,0.003559,-0.0028,-0.00347,0.018858,-0.611728,-0.378724,-0.12345,0.00272,-0.00281,0.012609,-0.68274,1.180385,7.098405,-0.00413,-0.00792,-0.004849
1.039999,187.650726,131.14849,219.819358,0,0,0,79.388057,0,199.30191,222.180867,131.14849,219.819358,-0.00093,0.0028,-0.00249,0.00148,0.007629,0.01292,-0.82567,1.29182,1.868715,0.00255,-0.00482,0.000181,-0.183414,-0.793176,-1.237122,-0.00551,-0.00573,-0.01284
1.059999,187.671301,130.10157,244.894674,0,0,0,79.386206,0,199.277404,225.277912,130.10157,244.894674,0.0049,0.00436,0.014899,-0.00589,-0.00254,-0.007829,-0.283676,-0.784201,1.565734,0.00452,0.00457,-0.00921,1.785486,0.662951,-2.396595,-0.00543,0.007819,-0.01234
1.079999,187.691877,129.968986,263.044915,0,0,0,79.384354,0,199.252898,228.941905,129.968986,263.044915,0.01004,-0.007589,0.005551,0.00394,0.00419,-0.00706,0.210896,-0.722363,0.059552,-0.00088,0.00196,0.004169,0.334099,-0.16965,-6.058625,-0.00343,0.00455,0.008979
1.099999,187.712452,129.702283,268.332938,0,0,0,79.382503,0,199.228392,228.763539,129.702283,268.332938,0.00321,-0.0064,0.017049,0.00102,0.013269,-0.00445,0.866309,-0.427714,-2.233341,-0.00021,-0.006569,-0.005269,-1.319731,0.412302,-0.853158,0.00316,-0.005249,0.01029
1.119999,187.732,129.70055,268.595387,0,0,0,79.380652,0,199.203887,228.34481,129.70055,268.595387,-0.010509,-0.00833,0.006591,0.00361,-0.002439,0.031848,0.463539,0.502636,-1.522454,0.0047,-0.0003,0.00121,-1.214505,-0.664199,2.846224,0.0013,0.00304,0.00729
1.139999,187.732,129.925307,257.296294,0,0,0,79.3788,0,199.179381,226.990271,129.925307,257.296294,0.011149,0.002779,0.01399,0.00001,-0.013539,0.015031,0.117001,-0.749955,-3.03466,0.00781,0.00279,0.013259,1.79802,0.694009,-0.639292,-0.0046,0.00958,-0.003679
1.159999,187.732,130.220012,241.167251,0,0,0,79.376949,0,199.154875,225.075824,130.220012,241.167251,-0.008849,0.01014,-0.010369,0.00051,0.003309,-0.014388,-0.180572,-1.056222,-2.378059,-0.012599,0.00047,0.0051,1.735204,-0.112172,-1.463941,0.00184,0.00294,0.013999
1.179999,187.707925,130.917668,239.418664,0,0,0,79.375098,0,199.130369,227.057592,130.917668,239.418664,0.001329,0.00994,0.004049,-0.00025,-0.00486,0.027108,0.358148,-0.359232,-0.609375,0.000479,-0.00596,-0.003419,-0.186015,-0.627489,-3.80957,-0.00193,-0.00405,0.01345
1.199999,187.247103,131.177735,244.819288,0,0,0,79.373246,0,199.105863,228.033192,131.177735,244.819288,-0.009979,-0.001239,-0.012779,0.00748,0.009749,0.000852,0.151862,-0.0237,2.053111,-0.00083,-0.00232,-0.00261,-1.262906,0.108886,-1.781071,0.00518,0.009179,-0.008349
1.219999,187.188504,130.910436,249.665921,0,0,0,79.371395,0,199.081358,227.329652,130.910436,249.665921,-0.00349,-0.00106,-0.021389,-0.006199,0.00192,-0.00308,0.128901,-0.417607,3.755429,0.00463,0.00134,-0.00617,-1.643057,-1.142915,1.251349,-0.005769,-0.003999,0.004149
1.239999,187.130741,130.716782,253.560698,0,0,0,79.369543,0,199.056852,228.891217,130.716782,253.560698,-0.012279,0.013669,-0.02486,0.00187,-0.010019,0.006739,-0.423847,-1.026804,3.619658,-0.00315,-0.00577,-0.00942,0.404468,-0.167678,3.106199,-0.00284,-0.00439,0.014789
1.259999,187.309237,130.463715,249.899618,0,0,0,79.367692,0,199.032346,228.708171,130.463715,249.899618,0.007909,0.002651,0.014928,-0.00191,0.010889,0.00718,-1.120148,-0.007651,-0.144966,-0.00571,-0.00065,0.007879,0.490365,0.00059,1.528134,-0.012119,0.007629,-0.008889
1.279999,187.542,130.386115,250.993775,0,0,0,79.365841,0,199.00784,227.153293,130.386115,250.993775,0.00486,-0.00076,0.00871,-0.00077,0.00581,0.01328,-0.182346,-0.372428,2.117965,0.00253,0.00644,-0.009729,0.300761,-0.946474,-1.538457,0.012149,-0.001199,-0.00442
1.299999,187.542,130.832473,256.387768,0,0,0,79.363989,0,198.983335,226.901195,130.832473,256.387768,0.00172,0.00499,0.00865,0.00613,-0.00215,-0.019088,0.092734,0.052195,2.28836,0.00747,0.00743,0.004939,-2.136415,-2.312649,-2.258197,-0.002929,-0.00163,-0.00632
1.319999,187.548392,130.6648,256.325534,0,0,0,79.362138,0,198.958829,226.238669,130.6648,256.325534,0.00617,0.00514,0.026609,0.00055,0.015199,0.000809,-0.185763,-0.340627,0.260491,0.00172,0.01256,-0.00124,-1.180867,-1.624801,0.319316,-0.00513,-0.00134,-0.00893
1.339999,187.67,130.122022,256.291262,0,0,0,79.360286,0,198.934323,226.675224,130.122022,256.291262,0.00879,0.00308,0.015581,-0.00233,-0.005099,0.031628,0.224776,-0.533439,1.376053,-0.00453,0.00878,0.00551,1.457243,0.276117,-2.920187,-0.00941,0.00242,0.003509
1.359999,187.67,130.091402,256.637489,0,0,0,79.358435,0,198.909817,228.625954,130.091402,256.637489,0.000561,0.00075,-0.005858,0.00024,-0.00791,0.024501,0.647675,-0.340841,-0.421733,-0.0044,0.00834,-0.002119,0.824408,0.416822,-3.868393,-0.00408,0.00758,-0.011929
1.379999,187.67,130.315304,252.341887,0,0,0,79.356584,0,198.885311,228.719553,130.315304,252.341887,-0.00064,-0.008349,-0.025589,0.008189,0.019118,-0.011317,-0.084318,-0.501938,1.194264,-0.00479,0.01108,-0.012919,0.309177,0.918114,1.418632,0.003469,-0.006189,0.003649
1.399999,187.669301,131.196087,243.501552,0,0,0,79.354732,0,198.860806,228.118113,131.196087,243.501552,-0.00267,-0.00392,0.021197,0.006,-0.000829,-0.00969,-0.260587,-0.192732,-0.698055,0.00123,0.000021,0.004799,-0.882555,-0.357999,0.695912,-0.00289,0.00063,-0.0008
1.419999,187.659146,131.780688,239.736429,0,0,0,79.352881,0,198.8363,227.763015,131.780688,239.736429,0.005989,-0.00386,0.009341,0.00242,-0.010089,0.007189,-0.96241,-0.572813,-0.243083,0.00224,0.00291,-0.009279,-0.547644,-0.694066,1.227452,-0.011239,0.00756,0.019309
1.439999,187.719899,130.94705,244.728863,0,0,0,79.351029,0,198.811794,226.688587,130.94705,244.728863,-0.020918,0.006519,-0.006419,-0.006179,-0.001811,0.01053,-0.847958,0.671131,0.87881,-0.005209,-0.00249,0.017798,0.01837,0.815622,0.797021,0.005299,0.00254,0.001341
1.459999,187.728461,130.087661,256.257965,0,0,0,79.349178,0,198.787288,227.328404,130.087661,256.257965,0.006928,0.00326,0.001059,-0.00617,0.00342,-0.008039,0.282699,0.902423,0.452271,-0.00557,-0.00109,-0.000389,1.164358,0.688809,-2.378183,0.01012,-0.00012,0.00701
1.479999,187.566,130.146236,261.241584,0,0,0,79.347327,0,198.762783,228.595689,130.146236,261.241584,0.00929,-0.014039,0.024998,-0.00093,0.00811,-0.00106,0.464607,0.599272,-0.758713,0.004949,0.00559,-0.00027,0.374337,1.142058,-4.589012,0.002641,0.00508,0.00056
1.499999,187.566,130.42782,258.185369,0,0,0,79.345475,0,198.738277,228.586751,130.42782,258.185369,0.00912,0.007838,0.016871,0.00375,-0.012499,-0.00063,1.01962,0.284683,-3.509733,0.00789,0.00643,-0.00514,-0.479229,-0.003438,1.56127,-0.0043,0.00644,-0.00321
1.519999,187.56595,130.744007,257.236118,0,0,0,79.343624,0,198.713771,228.196558,130.744007,257.236118,0.000601,-0.001979,0.008531,-0.00022,-0.0073,0.014339,0.509377,1.026417,-0.931804,0.000311,-0.001309,-0.00917,-0.079019,-1.080273,3.647031,0.007019,0.00732,-0.00849
1.539999,187.565,131.185028,253.88209,0,0,0,79.341772,0,198.689265,227.21128,131.185028,253.88209,-0.0045,0.00043,-0.001719,0.00129,0.004189,-0.018948,-0.583032,0.696254,-3.115974,-0.010949,-0.00622,0.013918,0.704894,0.407524,1.617215,0.00512,-0.007729,-0.00474
1.559999,187.565,131.073238,246.61549,0,0,0,79.339921,0,198.664759,226.727165,131.073238,246.61549,0.00142,0.00418,-0.009779,0.00115,-0.00216,0.021737,-0.86403,0.317527,-2.033037,-0.00639,0.005209,-0.000679,0.9869,0.142669,-2.076486,0.00334,0.004609,0.002839
1.579998,187.567596,131.026123,242.793883,0,0,0,79.33807,0,198.640254,227.28202,131.026123,242.793883,-0.00189,-0.003319,0.001269,-0.00422,0.00255,0.034989,-0.398463,0.141273,-0.851395,0.001309,0.00107,-0.017069,0.244393,1.004698,-3.89946,0.00409,0.018769,0.00921
1.599998,187.619346,130.955845,246.526493,0,0,0,79.336218,0,198.615748,228.038996,130.955845,246.526493,0.00258,-0.00109,0.018479,0.00125,-0.00275,0.006902,0.396293,-0.032998,-0.165819,0.0072,-0.006049,0.018837,-0.804735,0.16283,-0.056615,-0.002319,-0.001458,-0.003899
1.619998,187.664,130.577587,254.280115,0,0,0,79.334367,0,198.591242,228.568462,130.577587,254.280115,-0.005139,-0.00153,0.01862,0.00573,0.00317,-0.005509,0.142148,-0.761318,0.232072,-0.004689,0.000049,0.000862,-0.927861,0.030359,3.753227,0.00125,-0.007889,0.007269
1.639998,187.664799,130.376767,255.333382,0,0,0,79.332515,0,198.566736,227.681864,130.376767,255.333382,0.010819,0.009339,0.038298,0.00181,0.00894,-0.017049,-0.445391,0.68099,0.197633,-0.00779,0.009399,-0.015919,-0.68611,-1.005764,1.789814,-0.00335,0.009529,0.00822
1.659998,187.672212,130.49631,255.467549,0,0,0,79.330664,0,198.542231,227.769443,130.49631,255.467549,-0.006529,0.001401,0.005943,-0.00353,0.019489,0.025236,-0.368146,0.184001,1.106424,-0.00243,-0.000199,-0.01114,0.306217,-0.039971,1.815788,-0.00268,0.01183,-0.001429
1.679998,187.522003,130.771307,253.456258,0,0,0,79.328813,0,198.517725,227.64996,130.771307,253.456258,-0.0074,0.021388,-0.023658,-0.00015,0.01475,-0.010007,0.141327,-0.42098,-0.796361,0.006099,-0.00406,-0.001331,0.926478,0.523673,-0.951779,-0,-0.011438,-0.012489
1.699998,187.484,130.834405,250.852527,0,0,0,79.326961,0,198.493219,227.245574,130.834405,250.852527,0.002749,0.010961,-0.042658,0.00458,0.006851,0.014338,0.324055,-0.440688,-0.641703,-0.006839,-0.0054,0.006009,0.979196,1.199484,-4.360786,0.00423,-0.0109,0.006118
1.719998,187.487545,130.485809,250.166437,0,0,0,79.32511,0,198.468713,226.514951,130.485809,250.166437,-0.00157,-0.002359,0.014205,-0.001549,0.016369,0.00934,0.021055,-0.030974,0.591807,0.005529,0.002469,0.00074,0.064346,-0.228421,-1.043017,-0.001879,0.009708,-0.007179
1.739998,187.555,130.452093,248.343882,0,0,0,79.323258,0,198.444207,226.432777,130.452093,248.343882,0.00067,-0.012999,0.026189,-0.00518,0.005041,0.0131,-0.268236,0.000517,1.282212,-0.001649,0.00447,0.010399,-1.112052,-0.884275,4.192773,-0.00119,0.0128,-0.00434
1.759998,187.559593,130.860716,251.073322,0,0,0,79.321407,0,198.419702,228.024887,130.860716,251.073322,-0.00046,-0.0119,0.013281,-0.015789,-0.003529,-0.004189,-0.379181,-0.821561,1.853042,-0.00181,-0.002769,-0.002139,-0.041239,-1.063595,-0.225691,0.004899,-0.014628,-0.00042
1.779998,187.647,131.009818,256.452611,0,0,0,79.319556,0,198.395196,229.252478,131.009818,256.452611,0.010559,0.011488,0.00935,-0.007221,-0.00284,0.011039,0.143156,-0.674212,2.026636,-0.00186,-0.0005,-0.019039,0.448249,0.410247,-1.253934,0.00644,0.002679,-0.00217
1.799998,187.639911,130.630922,253.349589,0,0,0,79.317704,0,198.37069,228.347366,130.630922,253.349589,-0.001879,-0.015237,0.027018,0.001969,-0.00389,0.01145,0.436246,-1.666457,0.819781,-0.00215,0.00404,-0.001731,0.616636,1.036538,-1.394628,-0.001359,0.019089,0.00284
1.819998,187.502954,130.259201,248.094938,0,0,0,79.315853,0,198.346184,226.507784,130.259201,248.094938,-0.00651,0.004848,0.021561,0.008339,0.010989,-0.043125,0.247796,-0.297274,1.17435,0.00323,0.00369,0.017628,0.01829,0.521773,-0.425621,-0.010759,-0.000758,0.00376
1.839998,187.462952,130.365791,250.517878,0,0,0,79.314001,0,198.321679,226.421117,130.365791,250.517878,-0.00427,-0.010819,0.01752,0.00782,-0.008778,-0.011443,-0.434783,-0.690217,0.878425,-0.008099,-0.014408,-0.002148,0.14265,0.697255,0.201378,0.004269,-0.010769,-0.005409
1.859998,187.444248,130.770446,252.582548,0,0,0,79.31215,0,198.297173,227.721281,130.770446,252.582548,-0.00234,0.008738,-0.000928,-0.005129,-0.00768,-0.001541,-0.420181,-0.21025,1.630457,-0.00833,0.000919,-0.00007,0.254381,0.241828,1.795197,-0.004669,0.009308,-0.011499
1.879998,187.468,130.921386,252.390568,0,0,0,79.310299,0,198.272667,228.066587,130.921386,252.390568,0.007609,-0.000829,-0.016768,0.003919,-0.028778,0.00253,0.495063,-0.623671,0.205666,0.005359,0.014209,-0.008399,-0.077158,-0.693141,1.236013,-0.00355,0.018699,-0.002791
1.899998,187.468,130.700891,252.18172,0,0,0,79.308447,0,198.248161,227.557269,130.700891,252.18172,0.00989,0.00116,-0.032029,-0.003189,-0.002453,0.025858,0.895042,-0.162364,1.35932,0.00398,-0.010798,-0.000611,0.464308,0.610846,-0.373077,0.003859,-0.009377,-0.00729
1.919998,187.468,130.364462,251.714175,0,0,0,79.306596,0,198.223655,227.178126,130.364462,251.714175,-0.007978,-0.017478,0.021215,0.003619,0.019388,-0.015106,0.441803,-0.05715,-0.509982,-0.012998,-0.004261,0.010139,0.827815,1.13661,-2.846084,0.00513,-0.017949,-0.00389
1.939998,187.469997,130.245481,254.1241,0,0,0,79.304744,0,198.19915,227.340984,130.245481,254.1241,0.002069,-0.01242,-0.003478,0.009789,0.009971,-0.01946,-0.620089,0.532114,-1.280747,0.008628,0.004349,0.01128,0.604431,0.4011,-1.803899,-0.003259,0.009307,0.00083
1.959998,187.505155,130.687058,254.747681,0,0,0,79.302893,0,198.174644,228.554574,130.687058,254.747681,0.00432,0.003129,0.036176,-0.007268,-0.014688,-0.002092,-0.908782,0.365316,-2.206862,-0.001809,0.010329,0.002931,-0.261857,-0.296713,1.473907,-0.00283,0.015599,0.009159
1.979998,187.451,131.175763,251.345734,0,0,0,79.301042,0,198.150138,228.294995,131.175763,251.345734,0.00039,0.014909,-0.013455,0.007219,-0.006711,0.017008,-0.28203,0.278798,-1.497348,-0.00474,-0.011438,-0.002479,-0.346572,-0.078541,2.648698,0.004109,-0.010727,-0.003589
1.999998,187.451,131.018235,251.03165,0,0,0,79.29919,0,198.125632,228.258973,131.018235,251.03165,0.00176,0.01963,0.001309,-0.004969,-0.000661,0.009281,0.66517,-0.007423,0.442115,-0.00372,-0.01189,-0.00538,-0.44673,-0.676793,0.356159,-0.003969,-0.01139,0.007639
2.019998,187.451,130.323646,253.118601,0,0,0,78.802623,0,194.886071,227.881416,130.323646,253.118601,0.013819,-0.004687,0.021858,0.011488,-0.011189,-0.006548,0.513974,0.269144,-0.28918,0.003849,0.012408,0.007189,-0.350439,0.878902,-0.959665,-0.00635,0.014138,0.0071
2.039998,187.282843,130.102071,251.531541,0,0,0,78.819728,0,194.936777,227.341252,130.102071,251.531541,-0.004318,0.009588,-0.004157,0.001951,0.015897,-0.012199,0.021997,0.287478,-0.250904,-0.005299,0.005281,-0.001419,0.38193,1.203389,-1.232814,0.002539,0.01286,-0.010358
2.059998,184.082,130.51642,251.331689,0,0,0,78.836832,0,194.987483,228.227985,130.51642,251.331689,-0.00259,-0.015407,-0.00481,-0.008379,-0.000608,0.003958,-0.580972,-0.155868,-1.93192,-0.00019,-0.017188,0.004989,0.663083,0.740444,-2.17927,0.00533,-0.015407,0.004079
2.079998,184.082,130.975516,253.293303,0,0,0,78.853937,0,195.038189,229.2737,130.975516,253.293303,0.00003,0.006558,0.007749,0.006279,-0.010609,0.009609,-0.610307,0.608647,-0.521884,-0.00062,-0.007421,0.00424,-0.210567,-0.82978,1.374451,0.00014,-0.004471,-0.006949
2.099998,184.082,130.843613,253.668894,0,0,0,78.871041,0,195.088895,228.315921,130.843613,253.668894,0.00432,-0.009118,-0.016597,-0.000389,0.006188,0.003521,-0.066372,0.371413,0.675176,0.00121,0.019207,-0.000889,-0.769127,-0.996974,2.390643,-0.011099,0.012868,0.000669
2.119998,184.082,130.491414,254.024766,0,0,0,78.888146,0,195.139601,227.728186,130.491414,254.024766,0.00036,0.024056,-0.029719,0.005609,-0.008578,-0.002629,0.197195,0.033592,1.230057,0.00031,-0.000438,-0.011099,-0.585767,-0.15864,0.061612,-0.003341,0.000651,0.014828
2.139998,184.082,130.472402,250.536494,0,0,0,78.90525,0,195.190307,227.843498,130.472402,250.536494,-0.012829,0.005702,-0.009332,0.00298,-0.000431,-0.019588,-0.148153,-0.585414,0.508157,-0.008409,-0.014618,-0.00851,0.265609,0.714216,-2.097868,0.012778,-0.015838,-0.007878
2.159998,184.082,130.47566,251.339894,0,0,0,78.922355,0,195.241013,227.233815,130.47566,251.339894,0.004658,0.005,-0.00822,-0.0007,0.011169,-0.007181,-0.034972,-0.626046,-0.031712,-0.000861,-0.008561,-0.00516,0.814651,1.404716,-3.03208,-0.002308,-0.01215,0.001709
2.179998,184.082,130.621184,253.102261,0,0,0,78.93946,0,195.291719,227.433159,130.621184,253.102261,0.00045,-0.011348,-0.00532,0.00039,-0.011988,0.008628,0.15553,-0.364008,-0.086474,0.008219,0.011918,-0.00525,0.416113,-0.022997,-0.013114,0.00167,0.005958,0.00403
2.199998,184.082,130.630829,254.400421,0,0,0,78.956564,0,195.342425,227.839236,130.630829,254.400421,-0.00199,-0.01341,0.006149,-0.0016,0.001409,0.019009,0.075269,0.331075,-0.219956,-0.002539,0.004881,-0.011909,-0.739246,-0.965279,3.659346,-0.00097,-0.005079,-0.013808
2.219998,184.082,130.615682,252.318213,0,0,0,78.973669,0,195.393131,227.382359,130.615682,252.318213,-0.00204,0.016157,-0.004479,-0.0029,-0.009659,-0.022716,-0.000462,0.061039,0.80234,-0.0067,-0.014258,-0.001641,-0.410275,-0.443256,3.028198,0.005039,-0.018369,0.014147
2.239998,184.082,130.889181,249.951074,0,0,0,78.990773,0,195.443837,227.148245,130.889181,249.951074,-0.00396,0.009041,-0.00671,0.006079,0.001649,0.018616,-0.216857,0.027134,1.388827,-0.0073,0.012927,0.00078,0.031723,0.657162,-0.910337,-0.002919,0.005457,-0.000748
2.259998,184.082,130.936245,250.347277,0,0,0,79.007878,0,195.494543,227.05957,130.936245,250.347277,0.002329,0.001431,0.025247,-0.007209,-0.021018,0.035188,-0.134899,0.001683,0.972345,0.012868,0.00927,0.005599,0.40297,0.762659,-2.863001,-0.014609,0.010729,0.00353
2.279998,184.082,130.725943,250.645508,0,0,0,79.024983,0,195.545248,227.05737,130.725943,250.645508,-0.008359,0.00373,-0.018345,0.001689,0.011557,-0.012635,0.258358,-0.287919,0.567703,0.00827,-0.005728,0.013289,0.722466,0.768999,-2.610627,-0.000232,-0.005738,-0.009389
2.299998,184.082,130.592864,253.336981,0,0,0,79.042087,0,195.595954,228.184129,130.592864,253.336981,0.012627,-0.010328,-0.038408,-0.00017,0.000931,-0.020019,0.181968,-0.168593,-0.877795,-0.008358,-0.011069,-0.012097,0.093507,-0.322883,-0.157553,0.006379,-0.018529,-0.004531
2.319998,184.082,130.579641,255.076453,0,0,0,79.059192,0,195.64666,228.481628,130.579641,255.076453,0.000741,-0.00753,-0.016413,0.00062,-0.006989,-0.0223,-0.146725,0.025189,-0.104073,-0.000091,0.007488,-0.000011,-0.684037,-0.916656,3.830842,0.00198,0.014126,-0.00144
2.339998,184.082,130.907725,252.353612,0,0,0,79.076296,0,195.697366,229.279974,130.907725,252.353612,0.008089,-0.00481,0.026055,-0.0001,-0.00519,0.009546,-0.270077,0.272973,-0.094711,0.012588,0.016209,0.010669,-0.12653,0.082673,1.518458,0.00266,0.01333,-0.00403
2.359998,184.082,130.996011,248.922108,0,0,0,79.093401,0,195.748072,232.780554,130.996011,248.922108,-0.013607,0.002289,-0.012305,0.00153,-0.00313,0.01067,-1.707846,5.48772,5.950501,0.002921,-0.013366,0.00682,0.365887,0.310956,-1.673598,-0.003149,-0.018306,-0.00321
2.379998,184.082,129.514417,262.388774,0,0,0,79.110505,0,195.798778,236.594725,129.514417,262.388774,0.004728,0.0005,-0.00985,-0.0002,0.007519,0.017909,1.126272,0.131139,-2.894925,0.00444,-0.009071,0.00606,0.420394,0.428556,-1.261069,0.002639,-0.010761,-0.00095
2.399998,184.082,126.853317,289.854976,0,0,0,79.12761,0,195.849484,237.838372,126.853317,289.854976,0.00439,0.005179,-0.0124,-0.006569,-0.008008,0.000672,-0.060179,-3.160908,-9.154024,0.00431,0.007528,-0.006089,0.08542,0.3424,-0.920831,-0.002049,0.011187,0.004669
2.419998,184.082,124.9202,306.578327,0,0,0,79.144715,0,195.90019,234.73883,124.9202,306.578327,-0.007429,0.009409,-0.008101,0.004859,-0.00836,0.011779,0.227396,4.563919,-0.632966,0.00806,0.017339,-0.00358,-0.010329,-0.290884,-0.280396,-0.00599,0.015479,0.00758
2.439998,184.082,125.893954,296.51408,0,0,0,79.161819,0,195.950896,232.572848,125.893954,296.51408,-0.00719,0.003821,-0.01056,-0.005619,-0.00955,-0.037854,-0.431471,2.665416,-0.348144,-0.007748,-0.017776,-0.00662,-0.317493,-0.000565,1.118763,0.002539,-0.007577,0.003051
2.459998,184.082,128.217163,276.265564,0,0,0,79.178924,0,196.001602,233.943077,128.217163,276.265564,0.006278,0.011959,-0.0136,0.003429,-0.004331,-0.021722,-0.206867,-1.461958,-1.52405,-0.00399,-0.006461,-0.002161,-0.303042,-0.284646,0.722127,-0.004209,-0.00387,0.00304
2.479998,185.295027,129.506976,266.401686,0,0,0,79.196028,0,196.052308,233.445559,129.506976,266.401686,-0.010758,-0.009707,0.005848,0.011359,-0.00456,-0.003982,-0.20468,0.605973,-0.226895,0.006779,0.020167,0.002589,0.279121,0.662947,-0.564697,-0.00566,0.015168,0.00334
2.499998,187.975859,130.452447,267.563211,0,0,0,79.213133,0,196.103014,233.770741,130.452447,267.563211,0.011897,-0.01146,-0.013638,0.002061,0.009298,0.003759,-0.172464,-2.541345,-0.047901,0.00795,-0.001477,-0.005399,0.583504,0.459404,-1.766357,-0.000501,-0.006837,0.00127
2.519998,187.480256,130.897297,266.677226,0,0,0,79.230238,0,196.15372,233.478045,130.897297,266.677226,0.005801,-0.01091,0.018796,0.00523,-0.006828,-0.015778,-0.068422,-1.775711,4.656199,-0.002309,-0.015998,-0.012709,0.169929,-0.504945,-0.190408,0.007719,-0.014009,0.00016
2.539998,187.147,131.376453,254.465426,0,0,0,79.247342,0,196.204426,231.776703,131.376453,254.465426,0.00655,0.006168,0.01512,-0.003159,-0.012659,-0.022059,-0.496489,-0.85351,5.16095,-0.00011,-0.002082,-0.000421,0.680579,-12.826531,-4.12853,0.001831,-0.003071,0.00158
2.559998,187.147,131.902337,236.589091,0,0,0,79.264447,0,196.255132,228.139914,131.902337,236.589091,-0.002959,0.013889,0.01818,-0.008799,-0.005331,0.001837,-1.208375,-0.926901,4.482371,0.00346,0.015238,-0.017578,-8.38118,-8.111682,-9.558463,-0.008709,0.014578,0.00117
2.579998,187.147,131.637742,221.671348,0,0,0,79.281551,0,196.305838,223.447469,131.637742,221.671348,0.005409,0.01306,0.005392,0.001209,0.001159,0.028607,-1.870421,-0.324872,5.23738,-0.010188,-0.002938,0.002928,-2.827632,1.728927,-0.088239,-0.002831,0.001222,0.009279
2.599998,187.147,130.54591,229.023923,0,0,0,79.298656,0,196.356544,222.867849,130.54591,229.023923,-0.007888,-0.010287,-0.001059,0.00182,0.0042,0.034079,-0.854361,-2.097449,3.418357,-0.005601,-0.017508,0.010449,5.349745,1.724281,3.778429,0.008379,-0.009949,0.002961
2.619998,187.422593,130.216439,248.265676,0,0,0,79.31576,0,196.40725,226.424516,130.216439,248.265676,-0.003601,-0.0086,-0.032606,-0.009179,-0.015977,0.011763,0.302032,-1.637865,2.000769,0.001979,0.006467,0.000231,3.08351,1.280003,2.808346,-0.005618,-0.005511,-0.004469
2.639997,188.027615,130.606469,262.468508,0,0,0,79.332865,0,196.457956,229.033788,130.606469,262.468508,-0.0044,0.001569,0.001596,-0.000011,-0.010511,-0.001378,1.06836,-0.947381,0.47401,0.00575,0.00908,0.008679,-0.306725,2.213778,0.466517,-0.000391,0.006688,0.005909
2.659997,187.938,130.111175,274.497263,0,0,0,79.34997,0,196.508662,229.878629,130.111175,274.497263,0.012098,0.00306,0.020258,-0.008439,-0.000381,-0.025327,1.421274,0.136488,0.422437,-0.014147,-0.004568,-0.005448,-1.819762,3.318965,-4.317553,0.00112,-0.003669,0.012829
2.679997,187.938,129.556363,270.432903,0,0,0,79.367074,0,196.559368,229.04276,129.556363,270.432903,0.000352,0.017738,-0.003007,0.007958,0.005939,0.004696,1.174162,-1.195365,0.325493,-0.006541,-0.00798,-0.012389,-0.496034,0.587858,-0.695645,-0.005429,-0.015108,0.000402
2.699997,187.938,130.107428,250.977371,0,0,0,79.384179,0,196.610073,227.026984,130.107428,250.977371,0.005639,-0.009936,0.020437,-0.005968,-0.018147,0.051504,-0.093234,-0.544615,-0.660321,0.001509,0.002159,0.000488,2.162741,-0.627421,1.994467,-0.00673,0.003618,-0.010459
2.719997,187.82225,130.956269,237.074363,0,0,0,79.401283,0,196.660779,225.694485,130.956269,237.074363,0.001131,-0.004501,0.006772,0.004549,0.016695,-0.018321,-1.627879,0.639015,0.267948,0.00352,0.012679,-0.005659,3.815493,-0.887486,0.01419,0.000619,0.014289,-0.006401
2.739997,187.552,131.001234,236.111986,0,0,0,79.418388,0,196.711485,225.297672,131.001234,236.111986,0.006369,-0.00335,-0.037794,-0.003959,0.036737,-0.033968,-1.130255,-0.182152,-1.529054,-0.013408,-0.010207,-0.00941,-0.357113,0.989044,0.991442,0.00133,-0.004797,-0.000141
2.759997,187.732522,131.267105,240.345815,0,0,0,79.435493,0,196.762191,226.946424,131.267105,240.345815,-0.007928,0.000719,-0.005614,0.003859,-0.009174,-0.039119,0.605252,0.847415,-0.345445,-0.002851,-0.016319,-0.002721,-2.521136,1.424893,-0.499005,0.0012,-0.016538,-0.007889
2.779997,188.096725,131.120239,250.329291,0,0,0,79.452597,0,196.812897,229.508544,131.120239,250.329291,-0.001641,-0.00203,-0.010959,0.00181,0.000759,-0.019173,1.2163,1.615009,-2.388452,0.002609,0.009437,-0.006609,-0.61724,0.946863,-2.369525,-0.008729,0.011226,-0.000481
2.799997,187.856846,130.674358,256.96703,0,0,0,79.469702,0,196.863603,230.313265,130.674358,256.96703,0.005579,0.00062,0.007507,0.009549,-0.008419,-0.006562,1.177475,0.322869,-4.909119,0.008399,0.004631,-0.001821,1.561074,-2.126497,-2.186574,-0.004001,0.006011,0.003529
2.819997,187.609,130.479016,258.64907,0,0,0,79.486806,0,196.914309,229.746934,130.479016,258.64907,-0.002819,-0.011818,-0.019456,0.01062,0.009308,-0.032817,0.275798,-0.475605,-6.034452,0.000121,-0.013698,0.015328,2.637739,-0.150449,-0.471545,0.008358,-0.020137,-0.015787
2.839997,187.464162,130.597045,258.504749,0,0,0,79.503911,0,196.965015,228.546747,130.597045,258.504749,-0.008189,-0.016939,-0.013901,0.006431,-0.002338,-0.007524,0.50754,0.89643,-3.002948,0.00069,-0.003651,0.003472,0.000796,-2.402595,1.195321,0.00642,-0.011701,0.008567
2.859997,187.126,130.707536,250.901507,0,0,0,79.521015,0,197.015721,226.619533,130.707536,250.901507,-0.002111,-0.008741,0.041852,0.001031,-0.010499,0.002229,0.587779,0.557354,-0.03059,0.005129,0.014967,0.008059,-1.128792,1.885248,1.064407,0.001701,0.011377,0.00908
2.879997,187.126,130.405303,250.022436,0,0,0,79.53812,0,197.066427,226.054281,130.405303,250.022436,0.012408,0.008967,0.018433,-0.009149,-0.001901,0.042324,0.348684,0.234466,-2.291137,0.00379,0.005441,0.000091,-1.06088,-0.060622,-1.433843,-0.011508,0.007011,0.00654
2.899997,187.325714,130.353707,252.907847,0,0,0,79.555225,0,197.117133,227.254268,130.353707,252.907847,-0.006637,0.017319,0.013831,-0.004481,-0.009919,0.036671,0.220778,0.30136,0.690993,-0.009118,-0.018447,0.012298,1.021822,0.856449,-0.894397,0.009387,-0.017407,0.00417
2.919997,187.780305,130.757522,254.694144,0,0,0,79.572329,0,197.167839,229.225548,130.757522,254.694144,-0.00843,0.010561,-0.010996,0.003949,0.005948,0.005384,-0.181302,-0.518413,-0.483022,-0.00742,-0.000963,0.003041,2.022847,0.942058,0.814516,-0.004708,0.001047,-0.009668
2.939997,187.689428,131.461189,249.907945,0,0,0,79.589434,0,197.218545,229.826724,131.461189,249.907945,-0.00681,-0.014306,-0.00977,0.00516,-0.013867,0.00424,-0.133607,0.633585,0.688222,0.009838,0.011238,0.00541,-1.145297,-2.025885,3.688989,0.001999,0.012438,-0.004381
2.959997,187.541,131.676379,246.491459,0,0,0,79.606538,0,197.269251,228.425371,131.676379,246.491459,0.000309,-0.01199,0.008457,0.00251,0.007027,-0.030515,-0.160126,0.91251,-0.549513,0.002561,-0.000898,0.00382,-3.060396,-2.143173,3.839629,0.006439,-0.004598,0.001459
2.979997,187.541,131.087074,247.707936,0,0,0,79.623643,0,197.319957,226.839157,131.087074,247.707936,0.00192,0.006037,0.01016,0.00061,-0.003039,0.019223,0.157575,-0.41579,-1.678708,0.00215,-0.011578,-0.005949,-2.110536,-0.400429,1.67476,0.00489,-0.008599,-0.002489
2.999997,187.552395,130.384211,249.153713,0,0,0,79.640748,0,197.370663,225.843572,130.384211,249.153713,-0.00116,-0.000949,0.021688,0.00328,-0.008049,0.012261,0.595047,-0.893932,-1.983036,-0.006479,-0.002511,0.001319,0.295916,-0.618319,-3.686033,-0.001439,0.002528,0.006039
3.019997,187.579,130.221593,251.305782,0,0,0,78.965942,0,200.304726,226.61102,130.221593,251.305782,0.003299,0.008649,-0.026023,-0.000719,-0.00826,0.006971,0.363023,-0.923506,-0.828715,0.005848,0.011788,-0.008169,1.825251,0.256805,-1.849733,-0.010259,0.009419,-0.007408
3.039997,187.579,130.689323,255.114705,0,0,0,78.972205,0,200.352329,228.442598,130.689323,255.114705,0.00458,-0.013617,-0.013592,0.007099,0.010707,-0.031964,-0.600802,0.016146,-0.581695,0.002351,-0.005807,-0.002431,1.013636,-0.048306,1.334185,0.001588,-0.001248,-0.003011
3.059997,187.579,130.75719,261.145617,0,0,0,78.978468,0,200.399932,229.63449,130.75719,261.145617,-0.005248,-0.0167,-0.01049,0.00397,0.023428,-0.005224,-0.373932,0.028018,1.057076,-0.006329,-0.014709,0.006829,-0.262857,-0.593202,1.277878,0.00044,-0.005179,0.003769
3.079997,187.579,130.802334,260.415875,0,0,0,78.984731,0,200.447535,229.712529,130.802334,260.415875,-0.00767,-0.002152,0.007927,0.00123,-0.007626,0.012577,0.308332,-0.292114,1.565657,0.001079,0.003877,0.002081,-0.428256,0.288744,1.023146,0.004969,0.008468,-0.014787
3.099997,187.556511,130.905655,251.244082,0,0,0,78.990994,0,200.495138,228.968656,130.905655,251.244082,0.005718,-0.00174,-0.010027,0.00117,0.000599,-0.009677,0.135445,-0.040966,0.927831,0.00372,0.015938,-0.001439,0.06083,0.583158,0.342117,0.001591,0.00595,0.014615
3.119997,187.490806,130.895711,241.964537,0,0,0,78.997257,0,200.542741,227.422231,130.895711,241.964537,0.002111,0.021346,-0.037476,-0.00131,-0.009758,0.013946,0.104884,-0.231073,1.327863,0.000331,0.002632,0.013428,0.043772,-1.008562,-0.484252,-0.00012,-0.006138,0.01503
3.139997,187.420419,130.722407,243.101034,0,0,0,79.00352,0,200.590344,226.965131,130.722407,243.101034,-0.004829,0.005502,-0.023922,-0.00252,0.017386,-0.025854,-0.484799,-1.143189,1.053193,-0.005109,-0.005649,-0.001598,-0.79503,-0.341553,1.284216,0.0011,-0.00647,-0.012886
3.159997,187.332198,130.522081,251.080123,0,0,0,79.009783,0,200.637947,227.885037,130.522081,251.080123,0.003619,-0.017316,0.021943,0.006169,-0.008766,-0.001864,-0.692898,-1.026978,0.695995,0.008968,0.009518,0.013668,-0.962024,-0.388343,2.264798,-0.005119,0.004318,-0.001912
3.179997,187.379482,130.501833,253.194892,0,0,0,79.016046,0,200.68555,227.944681,130.501833,253.194892,-0.007138,0.010816,0.032478,-0.005698,-0.00596,-0.014278,-0.341504,-0.209047,1.710563,-0.000768,0.002411,0.002772,0.06941,-0.334188,-1.952506,-0.001141,-0.007348,-0.012508
3.199997,187.498484,130.741813,255.660798,0,0,0,79.022309,0,200.733153,228.834472,130.741813,255.660798,-0.00896,-0.018106,0.005874,0.002029,0.002569,0.006577,0.62695,0.290763,0.767396,-0.0032,-0.012448,-0.004119,0.643291,-0.083269,-0.281129,0.002649,-0.00601,0.013686
3.219997,187.5726,131.149277,255.762904,0,0,0,79.028572,0,200.780756,228.878383,131.149277,255.762904,0.007467,0.023414,-0.003229,-0.006689,0.00305,0.024337,0.68897,0.534632,-0.301954,-0.00151,-0.001502,-0.00673,0.896111,0.356442,-0.256874,-0.007308,0.003968,0.002742
3.239997,187.609982,130.917116,253.573259,0,0,0,79.034835,0,200.828359,227.117953,130.917116,253.573259,-0.001079,-0.010325,-0.007419,0.004168,0.019287,-0.009805,0.249188,-0.455637,-0.074795,0.006059,0.013428,0.000269,1.106427,1.632712,-0.8374,-0.002901,0.009219,-0.016717
3.259997,187.685604,130.188313,250.971763,0,0,0,79.041098,0,200.875962,226.266722,130.188313,250.971763,0.00075,0.006217,-0.030526,-0.006158,0.005922,0.021655,-0.637923,-0.361925,-1.036731,-0.000079,0.004011,-0.002,-0.344925,0.675918,-1.947368,0.006219,-0.002568,-0.006202
3.279997,187.666,130.199458,247.884019,0,0,0,79.047361,0,200.923565,227.180458,130.199458,247.884019,-0.002679,-0.000459,0.010343,-0.002041,0.012959,0.005243,-0.694501,-0.330255,-1.052088,0.001,-0.009298,0.004519,-0.995769,-0.051767,-0.406569,0.0044,-0.009489,0.004548
3.299997,187.597935,130.834052,250.345028,0,0,0,79.053624,0,200.971168,228.444614,130.834052,250.345028,-0.00299,-0.00107,0.006551,-0.006259,0.004541,-0.004458,-0.445569,-0.214508,2.552211,0.00137,0.001208,-0.004489,-0.345061,-0.024914,1.702583,-0.002629,0.005858,-0.001309
3.319997,187.438465,131.186275,255.720247,0,0,0,79.059887,0,201.01877,229.729351,131.186275,255.720247,-0.00364,0.005749,-0.008118,-0.00403,-0.018466,0.008138,0.224466,0.333735,2.122137,0.0009,0.012188,-0.003,0.163411,0.211853,1.320089,0.00053,0.00674,0.007799
3.339997,187.43668,131.036143,255.494455,0,0,0,79.06615,0,201.066373,229.47302,131.036143,255.494455,0.009688,0.017488,-0.025127,0.002719,0.005656,0.018178,0.425389,0.826974,2.336967,-0.003219,-0.000018,-0.006609,0.724523,1.019995,-1.213907,0.00185,-0.000059,0.01025
3.359997,187.434895,130.637532,251.168411,0,0,0,79.072413,0,201.113976,227.754236,130.637532,251.168411,0.00925,-0.001267,-0.02742,-0.004139,-0.004268,-0.013995,0.271114,-0.682736,-2.016565,0.004649,-0.010938,0.000589,0.173215,0.797385,-3.757496,0.00448,-0.009928,0.005911
3.379997,187.43311,130.510301,250.292066,0,0,0,79.078676,0,201.161579,227.323922,130.510301,250.292066,-0.006457,-0.00337,0.018672,0.007268,0.002419,-0.01235,-0.004994,0.252654,-1.47835,0.00205,0.001208,0.00206,-0.097535,0.509608,-2.492801,0.00267,0.013116,-0.018406
3.399997,187.431325,130.735252,251.364371,0,0,0,79.084939,0,201.209182,227.597444,130.735252,251.364371,-0.00467,0.001829,-0.001937,-0.006748,-0.001939,0.005907,-0.140447,0.19522,0.119033,0.00332,0.009839,-0.003809,-1.110541,-0.773786,2.018177,-0.005719,0.003742,0.001617
3.419997,187.42954,130.911641,251.110622,0,0,0,79.091202,0,201.256785,227.768281,130.911641,251.110622,-0.00635,0.00375,0.003549,0.006248,0.005679,0.00773,0.2787,-0.179357,1.096707,-0.001699,-0.007867,0.006368,-0.673643,-0.521382,3.948898,0.000439,-0.007448,-0.005979
3.439997,187.427755,130.606881,252.66759,0,0,0,79.097465,0,201.304388,228.565417,130.606881,252.66759,-0.00599,0.010449,-0.019196,-0.010307,0.011749,0.003741,0.273591,-0.390415,1.443372,0.003059,-0.001901,0.002941,0.728706,0.509358,-0.272045,0.00075,-0.00932,0.009567
3.459997,187.42597,130.233982,254.420647,0,0,0,79.103728,0,201.351991,228.690489,130.233982,254.420647,0.006968,-0.004897,0.014274,-0.001441,0.006671,-0.015747,-0.248933,0.783454,0.434368,-0.003829,0.006009,-0.015137,1.519528,2.190519,-4.918834,-0.002289,0.012276,0.01064
3.479997,187.424185,130.379296,255.01737,0,0,0,79.109991,0,201.399594,228.794953,130.379296,255.01737,0.012689,0.009878,-0.009886,-0.00163,-0.009557,0.016215,-0.948443,-0.202235,-1.340514,0.006348,0.00433,0.013175,0.505419,1.059799,-2.442583,-0.00463,-0.000738,0.000062
3.499997,187.4224,131.071524,252.915241,0,0,0,79.116254,0,201.447197,228.806868,131.071524,252.915241,-0.000038,0.00953,0.009797,0.009308,0.003338,-0.005596,-0.283071,-0.067223,-1.39827,-0.004918,-0.007618,0.005101,-0.597606,-0.846902,2.188077,-0.000511,-0.016857,0.00053
3.519997,187.420615,131.291073,249.899013,0,0,0,79.122517,0,201.4948,228.291956,131.291073,249.899013,-0.00187,-0.018155,0.003981,-0.001818,-0.002949,0.008408,0.242442,-0.146267,-1.361866,-0.001881,-0.00489,-0.002129,-0.848978,-1.224667,2.289083,-0.007669,-0.006052,-0.010238
3.539997,187.41883,130.764718,251.746352,0,0,0,79.12878,0,201.542403,227.851084,130.764718,251.746352,0.009158,-0.003003,0.012568,-0.00448,-0.00203,-0.018426,0.280224,0.39106,-0.511432,0.008318,0.008158,0.006609,-0.375579,0.070564,1.482525,-0.004221,0.020306,0.001288
3.559997,187.417045,130.392232,253.733628,0,0,0,79.135043,0,201.590006,227.172503,130.392232,253.733628,0.003821,0.001959,0.01432,-0.00517,-0.012988,-0.003792,0.305466,-0.113646,0.875299,0.001211,-0.000209,-0.006168,0.356518,-0.603387,-0.766985,-0.00662,0.009702,0.0001
3.579997,187.41526,130.470187,252.47786,0,0,0,79.141306,0,201.637609,226.975203,130.470187,252.47786,-0.007708,0.015768,-0.023183,0.004418,-0.003652,-0.023087,-0.367668,-0.162832,1.754433,-0.00168,-0.013858,0.003608,0.914137,0.610247,-0.979785,0.002548,-0.015086,0.007269
3.599997,187.413475,130.89115,250.892855,0,0,0,79.147569,0,201.685212,228.317986,130.89115,250.892855,0.004398,-0.008306,-0.001934,0.007529,0.008878,-0.0255,-0.756815,-0.22045,0.216697,0.004869,-0.004762,0.010629,0.73244,0.067901,0.168308,0.00221,-0.005842,0.00797
3.619997,187.41169,131.349533,252.514379,0,0,0,79.153832,0,201.732815,229.241686,131.349533,252.514379,0.001421,-0.0085,-0.009889,-0.000399,0.00623,-0.009843,-0.477077,0.273498,-0.120594,0.011569,0.011767,-0.000478,-0.013046,-1.118902,0.077325,0.00244,0.012757,0.0065
3.639997,187.409905,131.170422,254.008753,0,0,0,79.160095,0,201.780418,228.706336,131.170422,254.008753,0.005699,-0.00904,0.018095,0.006989,-0.004618,0.008657,0.510083,-0.862667,-0.96177,0.001092,-0.000328,-0.007699,-0.836203,-0.919616,0.209246,0.00496,-0.008566,-0.007947
3.659997,187.40812,130.694575,251.954427,0,0,0,79.166358,0,201.828021,227.961083,130.694575,251.954427,-0.005368,-0.016729,0.001873,-0.000769,-0.000731,0.004811,0.401419,0.205309,1.818933,-0.009968,-0.013388,0.004968,-1.043613,-0.978519,2.11068,-0.005208,-0.019398,-0.00866
3.679996,187.406335,130.452813,249.781409,0,0,0,79.172621,0,201.875624,227.56934,130.452813,249.781409,0.006118,0.000567,0.014438,-0.005459,-0.025866,-0.020216,-0.083703,-0.9712,1.904285,0.003628,0.003447,-0.003658,0.113213,0.269107,0.293095,-0.00544,0.009555,0.003798
3.699996,187.40455,130.482705,252.615243,0,0,0,79.178884,0,201.923227,228.413699,130.482705,252.615243,-0.002408,-0.002989,-0.021024,-0.00346,-0.006963,0.007845,-0.182272,-0.720825,2.23996,0.00543,0.00135,0.014307,1.261665,1.534684,-1.794747,-0.001811,0.019808,-0.008128
3.719996,187.402765,130.672616,256.952314,0,0,0,79.185147,0,201.97083,228.908402,130.672616,256.952314,0.000439,-0.00158,0.011394,-0.000021,0.000379,0.027866,-0.084348,-0.939141,1.871336,-0.003818,-0.004559,0.006781,0.909083,0.987448,-2.004932,0.002639,-0.011794,-0.000791
3.739996,187.40098,130.78552,256.463218,0,0,0,79.19141,0,202.018433,228.258276,130.78552,256.463218,0.004659,-0.007189,0.034156,-0.00096,-0.0024,0.0303,0.165905,-0.71779,-0.167175,-0.004,-0.008159,-0.000889,-0.281157,-0.18771,1.101984,0.00465,-0.01406,-0.005659
3.759996,187.399195,130.927545,251.103798,0,0,0,79.197673,0,202.066035,228.076293,130.927545,251.103798,-0.000119,-0.000871,-0.008952,-0.010488,-0.00414,0.02888,0.113069,0.270473,0.872734,0.004369,0.012756,0.003639,-0.771232,-0.434956,1.339838,-0.004738,0.009966,-0.001451
3.779996,187.39741,131.120605,249.030601,0,0,0,79.203936,0,202.113638,228.036827,131.120605,249.030601,0.006569,0.002059,0.007357,0.002618,0.003559,-0.02796,0.249746,-0.304827,0.31394,-0.001729,0.01015,-0.000609,-0.343866,0.096725,1.473336,0.000379,0.005051,-0.00265
3.799996,187.395625,131.077328,249.770348,0,0,0,79.210199,0,202.161241,227.524502,131.077328,249.770348,0.00488,0.011018,-0.012576,0.005559,-0.007288,0.007944,-0.149259,-0.596158,1.395367,-0.00079,-0.011086,-0.004719,0.404496,0.715949,0.18843,0.005989,-0.015766,0.0001
3.819996,187.39384,130.696658,251.44913,0,0,0,79.216462,0,202.208844,227.594078,130.696658,251.44913,0.000081,0.007761,0.008786,0.0076,0.014436,-0.007837,-0.285186,-0.14772,1.982595,0.004329,-0.004251,-0.00419,1.104865,1.752035,-3.565659,0.002491,-0.005172,-0.011488
3.839996,187.392055,130.425598,252.34342,0,0,0,79.222725,0,202.256447,227.749532,130.425598,252.34342,-0.008698,-0.005647,-0.003518,0.003661,0.003952,0.017705,0.102041,-0.129793,0.30643,0.013658,0.002789,-0.0033,0.568606,0.851401,-2.466917,0.00207,0.016556,-0.01139
3.859996,187.39027,130.864352,250.937781,0,0,0,79.228988,0,202.30405,229.910833,130.864352,250.937781,-0.0096,-0.00305,0.004948,-0.010667,-0.000699,0.01893,0.450218,0.350004,0.19573,0.003332,0.00337,0.003849,-0.290406,-0.084563,1.536444,-0.010588,0.000863,-0.001042
3.879996,187.388485,131.216703,249.134464,0,0,0,79.235251,0,202.351653,235.117807,131.216703,249.134464,0.002468,0.000189,-0.008108,-0.005111,-0.004839,-0.03208,0.339491,0.514489,-0.291567,-0.013757,-0.011517,-0.006298,-0.460878,-0.882228,3.200793,0.009026,-0.017806,0.009998
3.899996,187.3867,129.583502,266.113891,0,0,0,79.241514,0,202.399256,238.905648,129.583502,266.113891,0.009129,0.014037,0.002058,0.000649,-0.00603,0.012462,-0.106845,-0.071348,0.502289,-0.004382,-0.003012,-0.002091,-0.189672,-0.070165,1.444345,0.001441,-0.002433,0.00992
3.919996,187.384915,126.510136,294.000051,0,0,0,79.247777,0,202.446859,238.939354,126.510136,294.000051,-0.003038,-0.004896,0.019437,0.005159,0.025604,-0.019704,-0.201572,-0.202255,-0.33508,0.007798,0.016636,-0.007919,-0.206857,0.022542,-0.240109,-0.003749,0.014267,0.005611
3.939996,187.38313,124.638677,306.411783,0,0,0,79.25404,0,202.494462,233.971228,124.638677,306.411783,0.000059,-0.015288,0.030028,-0.002049,-0.005654,0.036129,0.016368,-0.486406,-0.946183,-0.004128,-0.004826,0.011776,0.230547,0.718697,-2.514866,0.002759,-0.009505,0.011419
3.959996,187.381345,125.834082,295.356819,0,0,0,79.260303,0,202.542065,231.61185,125.834082,295.356819,-0.00239,-0.006362,0.008544,-0.008439,-0.001671,0.014874,0.042975,0.40268,0.267828,-0.016128,-0.016398,-0.003027,0.636163,1.111625,-1.963955,0.00521,-0.020868,-0.009386
3.979996,187.37956,128.147709,274.041666,0,0,0,79.266566,0,202.589668,232.219134,128.147709,274.041666,0.008358,0.003898,-0.012956,0.004078,-0.018217,0.001373,-0.203083,-0.073179,-0.62186,-0.001213,0.005376,-0.000361,0.035715,-0.067945,-0.382792,0.000191,0.008984,0.000088
3.999996,187.377775,129.87613,261.307639,0,0,0,79.272829,0,202.637271,231.991623,129.87613,261.307639,-0.001658,-0.005418,0.004717,-0.007998,0.000087,-0.007658,-0.462111,0.571177,1.019467,0.005419,0.018038,-0.00282,-0.747151,-0.43763,2.950564,0.00107,0.01047,0.004259
4.019996,187.37599,131.367406,253.394149,0,0,0,55.616119,0,172.044546,231.824652,131.367406,253.394149,0.009538,0.000059,0.015678,-0.004951,0.012638,-0.000171,0.045093,-0.093313,0.394849,0.00435,-0.008605,0.002699,-0.888033,-0.661647,3.413992,0.00062,-0.013315,-0.015476
4.039996,187.374205,132.178815,243.610416,0,0,0,55.644253,0,172.168756,230.82667,132.178815,243.610416,-0.005617,-0.007119,0.031777,-0.00681,0.019749,0.020666,0.340204,-0.153269,1.346318,0.00239,-0.015549,0.00273,0.259551,-0.13666,-1.189622,-0.002679,-0.018459,-0.012471
4.059996,187.37242,131.973429,232.660749,0,0,0,55.672387,0,172.292967,228.778541,131.973429,232.660749,-0.009209,0.001348,-0.027408,-0.001581,0.002263,-0.012194,0.225452,-0.539076,-0.028318,0.00068,0.008255,-0.002139,1.0994,1.17367,-3.517866,-0.00153,0.015304,0.005837
4.079996,187.370635,131.741194,229.202089,0,0,0,55.700521,0,172.417177,227.789049,131.741194,229.202089,-0.012689,0.00288,-0.018942,0.00036,0.00418,-0.0119,0.178689,-0.462285,0.17848,0.003459,0.01076,0.003719,0.594776,0.219252,-1.354223,0.005219,0.006102,0.00828
4.099996,187.36885,130.629022,239.416081,0,0,0,55.728655,0,172.541387,227.723033,130.629022,239.416081,0.004676,-0.002769,-0.013081,-0.00202,-0.009297,0.010855,-0.068703,-0.539965,0.917379,-0.001899,-0.009856,-0.000779,-0.509279,-0.800775,1.578761,0.011069,-0.013546,-0.000258
4.119996,187.367065,129.401524,254.739657,0,0,0,55.75679,0,172.665597,227.806104,129.401524,254.739657,0.00351,0.003129,0.005786,0.014767,0.005907,-0.005267,-0.01392,-0.27637,0.951823,0.003269,-0.014179,-0.004079,-0.758652,-0.256004,3.10027,-0.002427,-0.006491,-0.00247
4.139996,187.36528,129.625015,260.644584,0,0,0,55.784924,0,172.789807,228.066907,129.625015,260.644584,0.00141,-0.016956,0.013728,0.002462,-0.000039,0.007957,0.146757,-0.287268,1.747339,0.00549,0.015224,0.007498,0.155255,0.669212,-0.439342,-0.011418,0.016055,0.000829
4.159996,187.363495,129.996935,264.804697,0,0,0,55.813058,0,172.914017,228.336265,129.996935,264.804697,-0.00084,-0.002293,-0.003517,0.00365,0.00161,-0.019784,0.332552,-0.411385,0.975876,0.001371,0.009071,0.000891,0.715776,0.851943,-2.324958,0.002797,0.002223,0.00224
4.179996,187.36171,130.061507,266.223133,0,0,0,55.841192,0,173.038227,229.497535,130.061507,266.223133,-0.007989,-0.0046,-0.014628,-0.001199,0.007509,-0.023319,-0.173297,0.433849,-0.270987,-0.014367,-0.014805,-0.013537,0.56598,0.528416,-0.813366,0.007449,-0.017186,-0.000269
4.199996,187.359925,130.170658,260.461618,0,0,0,55.869326,0,173.162437,229.578914,130.170658,260.461618,-0.001781,-0.000981,0.007705,0.009818,-0.004278,0.008594,-0.435347,0.468853,-1.050042,-0.004882,-0.006852,0.010985,0.02384,-0.179277,0.32217,-0.003288,-0.003553,-0.019676
4.219996,187.35814,130.226889,248.874358,0,0,0,55.897461,0,173.286647,228.016137,130.226889,248.874358,0.005958,0.016876,-0.000528,-0.006317,-0.007989,0.014329,-0.145389,-0.26985,-1.156878,0.009057,0.016135,0.008321,-0.331258,-0.740206,0.927397,-0.008769,0.009777,0.016343
4.239996,187.356355,130.610502,240.750956,0,0,0,55.925595,0,173.410857,227.158754,130.610502,240.750956,-0.005198,-0.004566,0.012957,0.002378,-0.003421,0.030677,0.29661,-0.253463,0.51989,-0.004387,0.003123,-0.006647,-0.437818,-0.252659,2.027697,-0.002661,-0.002458,-0.000887
4.259996,187.35457,131.110999,238.387179,0,0,0,55.953729,0,173.535067,227.877574,131.110999,238.387179,0.007098,0.004648,-0.003697,0.010378,0.004308,0.009734,0.174735,-0.591072,0.4691,-0.010049,-0.016876,0.007067,0.078085,0.350508,0.361728,0.003359,-0.013798,-0.013317
4.279996,187.352785,130.916709,239.243706,0,0,0,55.981863,0,173.659277,227.425552,130.916709,239.243706,-0.003258,-0.013066,-0.009959,0.002822,0.007169,-0.023313,0.052025,0.029794,0.919179,0.001698,0.001336,0.003081,0.3248,0.712187,-2.014148,0.009989,0.012515,0.007166
4.299996,187.351,130.792715,245.317339,0,0,0,56.009997,0,173.783488,228.086266,130.792715,245.317339,0.008807,0.012774,-0.005371,-0.002599,-0.012226,-0.010383,-0.115326,0.382439,-0.294114,0.00264,0.010498,-0.001869,0.480179,0.868098,-1.835456,0.001172,0.006871,0.001561
4.319996,187.355999,130.674984,254.44694,0,0,0,56.038131,0,173.907698,228.835308,130.674984,254.44694,-0.008196,0.001392,0.018255,-0.006919,-0.001452,0.003887,-0.070009,0.28217,-1.026742,0.00032,-0.005347,0.003919,-0.019699,-0.322139,1.167551,0.00183,-0.001978,0.00312
4.339996,187.673936,130.265233,263.978598,0,0,0,56.066266,0,174.031908,229.608363,130.265233,263.978598,0.003627,0.009348,0.005903,-0.0062,-0.00075,0.019517,-0.013701,0.166303,-0.618763,0.00234,-0.009889,0.021626,-0.640814,-1.239024,3.121834,-0.001899,-0.006609,0.009859
4.359996,187.436048,130.180547,262.538712,0,0,0,56.0944,0,174.156118,229.009841,130.180547,262.538712,0.00533,-0.005697,-0.001438,-0.000601,-0.0016,-0.018672,0.224982,-0.137798,-0.86648,0.00272,0.001598,0.007083,-0.256488,-0.184284,1.587161,0.003879,-0.00496,0.00899
4.379996,187.464994,129.951589,257.837499,0,0,0,56.122534,0,174.280328,227.454584,129.951589,257.837499,-0.002048,0.003658,-0.015967,0.002829,-0.013467,0.009544,0.183629,-0.354943,1.106377,-0.004278,0.00365,-0.003098,0.290553,1.158762,-1.374404,0.00343,0.009687,0.001712
4.399996,187.465,129.558064,255.427477,0,0,0,56.150668,0,174.404538,227.526564,129.558064,255.427477,0.011037,-0.010287,0.011034,0.00278,0.003126,-0.012925,-0.041932,-0.058634,-0.017209,-0.00222,-0.017775,0.009847,0.89561,1.400738,-3.742692,0.00499,-0.005927,-0.000639
4.419996,187.549983,129.895238,246.889662,0,0,0,56.178802,0,174.528748,227.906089,129.895238,246.889662,0.00918,0.004937,-0.005706,-0.006288,0.00326,-0.01451,-0.032552,-0.01241,0.284005,-0.00249,-0.006432,-0.009826,0.823775,1.020332,-2.048584,-0.010067,-0.011469,-0.009848
4.439996,187.435023,130.821781,242.41286,0,0,0,56.206936,0,174.652958,228.867984,130.821781,242.41286,-0.001388,-0.001849,0.001508,-0.00562,0.012278,-0.007741,-0.122581,-0.05906,-0.69213,-0.00127,0.007947,0.001368,-0.402247,-0.870974,2.203018,-0.000722,0.006476,-0.012929
4.459996,187.455996,131.836182,241.443508,0,0,0,56.235071,0,174.777168,229.461203,131.836182,241.443508,0.005648,-0.006899,0.012868,-0.001431,-0.003827,0.015515,0.142093,0.292734,-1.15662,0.003539,0.000212,-0.013867,-0.976517,-1.629747,4.256749,0.002609,0.00464,-0.007601
4.479996,187.565978,131.705468,244.872924,0,0,0,56.263205,0,174.901378,228.992261,131.705468,244.872924,-0.005928,0.009007,-0.017204,-0.00301,-0.018137,0.002913,0.14409,0.071887,0.734574,-0.003399,-0.013177,-0.026847,-0.496283,-0.357523,1.216043,0.00446,-0.004238,-0.010819
4.499996,187.552003,130.475594,252.814646,0,0,0,56.291339,0,175.025588,228.460644,130.475594,252.814646,-0.0047,-0.013365,0.019322,0.002509,0.011024,-0.004168,0.249927,0.055623,0.184068,0.001739,-0.006721,-0.000976,0.265736,0.972275,-1.879976,-0.003908,-0.010449,-0.003232
4.519996,187.482015,129.516566,257.907167,0,0,0,56.319473,0,175.149798,227.534209,129.516566,257.907167,0.003658,-0.001823,0.016451,-0.016076,-0.022903,-0.029245,-0.019222,-0.476586,0.712097,0.009478,0.006587,0.023095,0.839337,1.167908,-2.689686,-0.001541,0.005147,0.003559
4.539996,187.501996,129.696081,256.099538,0,0,0,56.347607,0,175.274009,226.97334,129.696081,256.099538,0.00214,-0.0017,0.011771,0.007465,0.009783,0.000794,-0.126567,-0.062809,-0.062534,0.000482,0.011119,-0.003104,0.478817,0.451624,-0.68751,0.00078,-0.000199,0.010499
4.559996,187.552989,130.217208,258.516481,0,0,0,56.375741,0,175.398219,228.096869,130.217208,258.516481,0.006239,0.007948,-0.011335,-0.001688,0.002102,-0.013787,-0.112383,-0.206299,-0.738495,-0.004869,-0.005536,-0.010138,-0.329367,-0.736225,2.361966,0.005659,-0.006149,0.007241
4.579996,187.616986,130.686129,258.226872,0,0,0,56.403876,0,175.522429,229.659345,130.686129,258.226872,-0.004867,-0.000078,-0.021548,0.012747,0.008619,-0.008371,0.101484,0.358789,0.482538,-0.00577,-0.00357,-0.01096,-0.662878,-0.723323,2.159344,-0.004318,0.002898,-0.004088
4.599996,187.52302,131.180114,254.831189,0,0,0,56.43201,0,175.646639,229.956556,131.180114,254.831189,-0.00383,-0.008608,0.015372,-0.006566,-0.005637,-0.029095,0.269864,-0.2021,0.29487,0.003968,0.007078,0.011865,-0.247129,-0.314308,0.514113,0.001469,0.017417,-0.013038
4.619996,187.541996,131.235918,247.672156,0,0,0,56.460144,0,175.770849,229.555476,131.235918,247.672156,-0.00419,0.001498,0.002773,0.015035,0.009787,-0.011524,0.08522,0.12586,1.50423,0.00312,-0.003878,0.01085,0.193016,0.550005,-0.733512,-0.001209,0.002833,0.000427
4.639996,187.507008,131.168365,239.507919,0,0,0,56.488278,0,175.895059,227.893546,131.168365,239.507919,0.005238,0.011858,0.023495,-0.013823,0.006991,-0.018348,0.192056,-0.412718,0.734105,0.000871,-0.00581,0.005501,0.50358,0.651677,-1.514073,0.009098,-0.004318,0.003889
4.659996,187.571986,130.685409,243.206052,0,0,0,56.516412,0,176.019269,227.013629,130.685409,243.206052,0.00562,0.01105,0.000165,0.008595,0.00846,0.006914,0.072217,-0.298386,0.040697,0.00179,-0.00745,-0.010826,0.520566,0.328843,-1.108852,0.000942,-0.001191,-0.006798
4.679996,187.630987,130.252128,251.868518,0,0,0,56.544547,0,176.143479,227.794163,130.252128,251.868518,0.000081,-0.008766,0.009998,0.000512,0.015368,0.001161,-0.163467,-0.093296,-0.881631,0.00105,0.011496,-0.007931,-0.176322,-0.213417,1.026436,0.003539,0.009288,0.000548
4.699996,187.510026,130.110522,256.035007,0,0,0,56.572681,0,176.267689,228.878854,130.110522,256.035007,-0.007148,0.004347,-0.03247,0.006729,-0.003276,-0.001309,-0.092306,-0.163504,-0.447078,0.012437,-0.001357,0.010796,-0.698962,-1.038273,2.761637,-0.004538,-0.005437,0.00248
4.719995,187.527996,130.518847,259.65699,0,0,0,56.600815,0,176.391899,229.567594,130.518847,259.65699,0.005637,-0.012416,0.002882,-0.002468,0.014176,-0.015757,0.12953,0.138152,0.762956,-0.000767,-0.007429,-0.003237,-0.339921,-0.056692,1.17153,-0.002331,-0.009909,-0.013896
4.739995,187.557993,131.146478,257.659633,0,0,0,56.628949,0,176.516109,229.079211,131.146478,257.659633,0.00512,0.002697,0.00164,-0.00169,-0.004136,0.02956,0.146366,-0.018435,0.830085,0.001459,-0.000901,-0.008769,0.565635,0.881697,-1.534447,0.000739,-0.004201,-0.000773
4.759995,187.572997,131.163766,250.931704,0,0,0,56.657083,0,176.640319,227.510125,131.163766,250.931704,-0.006757,0.009129,0.00124,0.003849,-0.00352,-0.003073,0.010341,-0.001184,0.446487,0.00284,0.008718,0.011355,0.933087,1.183302,-3.484048,-0.003929,0.005198,0.004069
4.779995,187.580998,130.524375,248.254926,0,0,0,56.685217,0,176.764529,226.857538,130.524375,248.254926,0.000658,-0.006226,0.020535,0.00389,-0.011728,0.003329,-0.045527,0.181089,-0.370365,0.00383,-0.002677,0.009061,0.058678,0.170539,-0.272178,-0.00386,-0.005218,0.009239
4.799995,187.528012,130.342081,250.097792,0,0,0,56.713352,0,176.88874,226.993199,130.342081,250.097792,0.003259,-0.017287,0.015291,-0.007517,-0.007681,-0.012986,0.075663,-0.368815,-0.536512,0.00545,-0.011238,-0.013035,-0.998201,-1.587602,3.498506,-0.010628,-0.00551,-0.005217
4.819995,187.504005,130.642612,250.498229,0,0,0,56.741486,0,177.01295,227.667037,130.642612,250.498229,-0.025243,-0.030617,-0.022451,0.006207,-0.004191,0.004876,-0.015909,-0.000224,-0.396542,-0.003308,0.018363,-0.01419,-0.661516,-0.805887,3.163836,0.000108,-0.000801,-0.001411
4.839995,187.564986,130.639791,255.702481,0,0,0,56.76962,0,177.13716,229.07929,130.639791,255.702481,0.01591,-0.006236,0.002744,-0.001678,0.003168,-0.004248,-0.099911,0.214081,0.107386,-0.00497,0.005743,-0.006222,0.345402,0.449776,-0.673211,0.010957,0.009658,0.001499
4.859995,187.592994,130.585292,254.718423,0,0,0,56.797754,0,177.26137,228.702325,130.585292,254.718423,0.008372,0.013575,-0.003329,0.00035,0.00258,0.003868,0.110462,0.005037,0.827587,0.006267,-0.005197,-0.00779,0.703219,1.254138,-3.373358,0.007051,-0.000718,0.00325
4.879995,187.54701,130.396025,253.29424,0,0,0,56.825888,0,177.38558,227.282349,130.396025,253.29424,-0.000408,0.001433,-0.015467,0.005869,0.013817,0.00231,0.076108,0.069015,-0.593881,0.00451,-0.00725,0.000258,0.212217,0.896815,-1.86416,-0.000738,-0.004789,0.001051
4.899995,187.520006,130.697408,253.106855,0,0,0,56.854022,0,177.50979,227.585518,130.697408,253.106855,-0.00073,-0.007868,-0.01597,-0.011006,-0.011994,0.031133,-0.035873,0.131985,-0.483256,0.001131,0.004257,-0.001869,-0.12477,-0.072009,0.594634,0.00135,0.002678,0.003739
4.919995,187.546994,131.066042,250.273666,0,0,0,56.882157,0,177.634,228.142367,131.066042,250.273666,-0.003279,0.021153,-0.000604,0.001517,-0.000533,-0.021188,-0.095666,0.053769,-1.105941,-0.004889,0.00396,-0.005679,-0.350456,-0.631957,2.461165,-0.002559,-0.002769,0.00349
4.939995,187.566995,130.635633,249.276678,0,0,0,56.910291,0,177.75821,227.312848,130.635633,249.276678,-0.006319,-0.003064,0.013997,0.011168,0.003949,0.009253,-0.030406,-0.027771,0.045795,-0.000911,-0.004018,0.013245,-0.400328,-0.896657,2.62987,0.010287,0.001239,0.000211
4.959995,187.572999,130.246313,251.937016,0,0,0,56.938425,0,177.88242,227.976142,130.246313,251.937016,0.002698,-0.008769,-0.009274,-0.007945,0.00586,0.006271,-0.005906,0.038254,0.648696,-0.00081,-0.001461,-0.010864,0.238488,0.209286,-0.208193,0.002582,-0.002069,0.003199
4.979995,187.585997,130.072211,256.960322,0,0,0,56.966559,0,178.00663,229.126066,130.072211,256.960322,-0.004378,-0.00764,-0.01019,-0.002521,0.001611,0.00803,0.031091,-0.04554,-0.187291,0.006918,0.004039,-0.000033,0.65919,1.111845,-2.647588,-0.003998,0.001329,0.000901
4.999995,187.486024,130.416438,255.378548,0,0,0,56.994693,0,178.13084,229.706922,130.416438,255.378548,-0.00595,-0.00722,0.020443,0.002469,0.00275,0.00976,-0.000083,0.184005,0.302463,0.0085,0.00475,0.005899,0.357412,0.429323,-1.747935,-0.00372,-0.002519,-0.001519
5.019995,187.549985,131.240983,251.001064,0,0,0,81.152969,0,188.457722,229.717038,131.240983,251.001064,-0.011239,0.011705,-0.000965,-0.008767,0.00317,-0.005496,-0.006129,-0.016062,-0.538209,-0.011555,-0.002478,0.00792,-0.278488,-0.315892,0.907047,0.008307,-0.00303,-0.006849
5.039995,187.59099,131.300386,248.529029,0,0,0,81.153537,0,188.071132,228.766047,131.300386,248.529029,0.000647,-0.015733,0.029642,0.002087,-0.009037,0.023183,-0.106446,0.100972,0.193216,-0.001662,-0.0035,0.004721,-0.603243,-0.812382,2.869402,-0.001188,-0.000641,-0.000731
5.059995,187.579003,130.532853,250.482464,0,0,0,81.154106,0,187.684541,227.846379,130.532853,250.482464,0.003139,0.013933,-0.005581,-0.003229,0.006556,-0.006003,0.075187,-0.114719,0.132764,0.001539,0.000319,-0.005628,-0.304631,-0.255333,0.886813,-0.004139,-0.00026,0.015756
5.079995,187.111112,129.913938,253.079051,0,0,0,81.154675,0,187.297951,227.997374,129.913938,253.079051,0.00505,0.006552,0.015855,0.004528,0.00622,-0.011059,0.260926,-0.131336,0.497733,0.00333,-0.006688,0.005247,0.442552,0.640626,-1.432137,-0.00439,-0.003489,-0.008594
5.099995,183.449873,129.91411,255.101558,0,0,0,81.155244,0,186.911361,228.608714,129.91411,255.101558,-0.008367,-0.005627,-0.004155,-0.006127,-0.000408,0.008045,0.039873,-0.060227,0.471176,-0.007257,-0.002891,0.007639,0.601562,1.079465,-1.980139,-0.00546,-0.000541,0.002027
5.119995,183.449,130.554257,253.922311,0,0,0,81.155813,0,186.524771,229.398432,130.554257,253.922311,-0.002212,0.011006,0.009587,-0.00586,0.004149,0.00784,1.773167,-8.959858,-1.555377,-0.004541,0.001629,0.003411,0.215292,0.448011,-0.968271,0.005607,0.00064,0.008598
5.139995,186.962162,131.262813,252.860996,0,0,0,81.156381,0,186.138181,229.602569,131.262813,252.860996,-0.006879,0.002432,0.001122,-0.00567,0.001071,-0.016034,-0.834717,1.576961,3.885038,-0.000341,0.0036,-0.006368,-0.577142,-0.747291,2.395098,0.002751,-0.00004,0.014728
5.159995,186.963,131.045115,252.064499,0,0,0,81.15695,0,185.75159,228.56365,131.045115,252.064499,0.009636,0.00184,0.015926,-0.007889,-0.007568,0.013513,0.101685,5.078694,4.865175,0.004629,-0.006378,-0.0057,-0.574041,-0.834788,2.370856,-0.004548,0.004539,-0.002246
5.179995,186.963,130.545885,250.204356,0,0,0,81.157519,0,185.365,228.328689,130.545885,250.204356,-0.003497,0.013237,-0.005105,-0.001242,0.005687,-0.002456,1.713866,-3.557317,-5.058545,0.00365,-0.00496,-0.000191,0.375972,0.16541,-0.856542,0.000579,0.001831,-0.006919
5.199995,186.963,130.350379,251.578616,0,0,0,81.158088,0,184.97841,228.80699,130.350379,251.578616,-0.006179,-0.007535,0.005687,-0.007968,0.00768,0.012876,0.735605,-1.986984,-4.725314,0.00432,0.003268,-0.013597,0.53463,0.701636,-2.33383,0.017346,-0.005428,0.017054
5.219995,186.963,130.412274,253.566122,0,0,0,81.158657,0,184.59182,228.940187,130.412274,253.566122,-0.001551,0.008286,-0.011196,-0.001582,-0.002098,-0.002596,1.279294,0.428125,-0.520003,-0.002698,0.00368,0.003856,0.058239,0.417951,-0.990396,0.001064,0.004847,-0.002635
5.239995,186.963,130.378139,254.115782,0,0,0,81.159225,0,184.205229,228.854801,130.378139,254.115782,0.003849,-0.004767,-0.005012,0.003549,-0.00107,-0.015347,0.383914,-1.252449,-1.540474,0.000159,0.006209,-0.005128,-0.120935,-0.031228,0.970119,-0.006778,0.001971,0.003219
5.259995,186.963,130.284933,255.895934,0,0,0,81.159794,0,183.818639,228.379699,130.284933,255.895934,-0.014285,0.006297,-0.00507,-0.011406,-0.00168,-0.010131,0.061021,2.10299,-1.229978,-0.00109,0.003111,-0.013878,-0.272212,-0.529845,1.115564,-0.004231,0.00063,-0.004848
5.279995,186.963,130.732708,252.804624,0,0,0,81.160363,0,183.432049,228.084344,130.732708,252.804624,-0.007302,0.001651,0.004098,0.011704,-0.00323,-0.020177,0.242285,0.429639,-2.143841,0.009717,0.000511,-0.007162,-0.148321,-0.4102,1.181214,0.004918,-0.00056,0.007457
5.299995,187.114248,131.084752,250.519172,0,0,0,81.160932,0,183.045459,228.906994,131.084752,250.519172,0.008236,0.015346,-0.017404,-0.001197,0.004658,-0.007263,0.238631,1.613623,-2.132073,0.002992,0.00137,0.013605,8.99859,3.70189,4.17836,0.00677,0.001779,-0.005487
5.319995,187.265534,131.136297,247.784985,0,0,0,81.161501,0,182.658868,229.041986,131.136297,247.784985,0.003791,0.006362,0.016591,0.001369,0.001201,0.017764,-1.746483,1.368312,-0.61637,0.000651,0.003,0.007761,4.536458,2.477257,5.09732,-0.002698,0.003849,-0.000781
5.339995,187.416819,130.707127,249.912217,0,0,0,81.162069,0,182.272278,228.707864,130.707127,249.912217,0.00322,-0.007076,-0.027238,-0.008967,-0.013936,0.007203,-1.354288,1.651579,-0.438275,0.003369,-0.005728,-0.007196,-2.350256,6.71068,8.006961,-0.007999,-0.000719,0.008658
5.359995,187.568105,130.159667,254.578082,0,0,0,81.162638,0,181.885688,229.101741,130.159667,254.578082,-0.003488,-0.002091,0.014259,0.005146,0.006345,-0.010515,-0.446007,0.009021,-0.282529,-0.001149,-0.00692,-0.009469,-4.363826,0.885309,-4.318074,-0.004191,-0.00175,-0.005646
5.379995,187.719391,130.191322,256.984629,0,0,0,81.163207,0,181.499098,229.852603,130.191322,256.984629,0.005818,-0.013227,0.018249,-0.009036,-0.009956,-0.003762,1.491812,-0.315755,-2.254583,-0.00097,0.003067,0.001167,-1.097257,-3.230411,-3.534496,0.011456,0.003149,0.002388
5.399995,187.870676,130.57078,256.191648,0,0,0,81.163776,0,181.112508,229.459823,130.57078,256.191648,-0.001168,0.000107,0.003334,0.002057,0.007235,0.011996,1.290343,1.470361,-1.733367,0.007958,0.005459,-0.000899,3.160343,-0.720719,-4.686678,0.001743,0.005109,0.006259
5.419995,188.021962,130.926837,252.054445,0,0,0,81.164345,0,180.725917,228.724863,130.926837,252.054445,-0.005069,0.00078,-0.002418,-0.004958,-0.004787,0.01146,0.268528,2.030523,-0.007903,0.003891,-0.003918,0.013056,2.242941,-2.107486,-3.320648,0.00301,0.000931,0.00747
5.439995,188.022,130.864426,251.426544,0,0,0,81.164913,0,180.339327,228.933985,130.864426,251.426544,-0.00567,0.003029,-0.026814,-0.002391,0.004198,0.003582,-0.260431,-0.275105,-1.223461,-0.002828,0.001249,0.022607,-2.220179,-1.3065,1.615265,-0.013666,-0.005738,0.009479
5.459995,188.022,130.804656,252.124327,0,0,0,81.165482,0,179.952737,229.366627,130.804656,252.124327,-0.00695,-0.004378,-0.007355,0.000069,-0.004848,-0.017055,-0.129744,0.188838,-0.253185,-0.009528,0.003209,-0.006642,-1.470797,2.318409,0.086881,0.015722,0.001528,-0.002967
5.479995,187.210203,130.694719,252.674416,0,0,0,81.166051,0,179.566147,229.654804,130.694719,252.674416,-0.004741,0.002468,-0.011549,-0.004059,0.004318,0.004864,1.168489,-2.029178,-0.929802,-0.000362,0.00265,0.000388,-0.472662,2.364688,-0.175491,0.007252,0.004729,-0.005119
5.499995,187.010052,130.532073,253.104457,0,0,0,81.16662,0,179.179556,229.551057,130.532073,253.104457,-0.002111,0.008109,-0.003902,-0.000741,-0.007127,0.006859,0.457807,1.174759,2.08308,0.005988,-0.007267,-0.010127,1.35746,0.148041,3.833548,-0.021852,-0.003918,0.007117
5.519995,187.01,130.437795,253.169933,0,0,0,81.167189,0,178.792966,228.891443,130.437795,253.169933,-0.00182,-0.005106,0.002548,0.004839,-0.003011,-0.007396,-1.088194,-0.668346,1.128491,0.013618,-0.00916,0.011284,0.820641,-0.257514,4.741272,-0.02144,-0.012918,-0.000698
5.539995,187.01,130.43695,254.375234,0,0,0,81.167757,0,178.406376,228.054769,130.43695,254.375234,-0.005069,-0.000831,-0.026362,-0.003118,0.004228,0.002817,-0.768174,-1.284648,-1.629727,0.005682,0.001967,0.01023,-1.187733,-0.972353,1.166848,0.032976,0.003536,0.004619
5.559995,187.01,130.595388,253.960449,0,0,0,81.168326,0,178.019786,227.52141,130.595388,253.960449,-0.013118,-0.006678,0.002742,-0.000211,-0.000859,0.008339,-0.569702,-1.488647,-1.948057,-0.003538,0.005549,0.005241,-1.56781,1.096117,1.28175,0.026732,0.006849,-0.001648
5.579995,187.01,130.669091,255.146459,0,0,0,81.168895,0,177.633195,228.481998,130.669091,255.146459,0.009504,0.009226,0.000381,-0.004139,-0.008398,0.000002,-0.193409,0.623606,-0.301762,-0.006079,0.00511,-0.012175,-1.004688,0.301639,0.122374,-0.003642,0.00607,-0.00111
5.599995,187.411895,130.887503,254.159329,0,0,0,81.169464,0,177.246605,229.370327,130.887503,254.159329,0.004731,-0.003956,0.025563,0.005257,0.002437,-0.016146,1.108419,-0.831838,1.721799,-0.002971,0.00577,0.004715,1.424713,-1.653607,-1.557209,-0.030323,-0.018123,-0.003729
5.619995,187.162066,130.917522,251.917988,0,0,0,81.170033,0,176.860015,228.767188,130.917522,251.917988,-0.003818,-0.00577,0.005076,0.000841,-0.000899,-0.025128,0.797462,0.811899,1.952999,0.005158,0.003551,0.00537,2.68357,0.106788,-0.662985,-0.002738,-0.001175,0.000549
5.639995,187.119011,130.450428,251.084229,0,0,0,81.170601,0,176.473425,228.324551,130.450428,251.084229,-0.007199,-0.000082,-0.004367,-0.00077,0.010027,-0.005205,-0.549541,0.166527,1.882829,0.007789,-0.000019,0.00384,0.426969,-0.807589,0.182298,0.021183,0.003409,0.003049
5.659995,187.119,130.238188,250.461291,0,0,0,81.17117,0,176.086835,228.650501,130.238188,250.461291,0.000718,0.004829,0.006857,0.00007,-0.006845,0.013745,-1.148396,-0.38199,1.320414,-0.016263,0.00085,-0.002468,-0.038303,2.443718,0.237985,0.02174,0.000941,0.014147
5.679995,187.119,130.682998,252.618788,0,0,0,81.171739,0,175.700244,228.950008,130.682998,252.618788,-0.00028,-0.005397,-0.006396,-0.002469,0.010515,0.002993,-0.78439,-0.845123,1.005376,-0.002184,-0.00087,0.009087,-2.036922,-0.285281,0.951184,-0.011891,-0.011577,0.004253
5.699995,187.119,130.941869,254.200956,0,0,0,81.172308,0,175.313654,228.919308,130.941869,254.200956,0.001799,-0.007,0.007456,0.005088,-0.001907,0.0036,0.810543,-1.185427,0.518444,0.023643,-0.006588,0.007201,-1.681508,-1.468706,5.057714,-0.040752,-0.008791,-0.006967
5.719995,187.640863,130.749323,253.538142,0,0,0,81.172877,0,174.927064,228.799563,130.749323,253.538142,0.00357,0.000018,-0.001598,-0.007547,-0.00073,0.012977,0.876602,0.681878,2.833425,0.000416,-0.000192,0.010389,0.229776,-0.909803,0.819913,-0.00587,0.006616,-0.004931
5.739995,187.641,130.643679,253.513897,0,0,0,81.173445,0,174.540474,229.253755,130.643679,253.513897,0.00406,0.016416,-0.015386,-0.002501,-0.003889,0.002363,-0.002159,0.357439,2.954837,-0.027522,0.013926,0.006051,1.311403,1.795198,-5.021588,0.028581,0.00612,-0.000611
5.759995,187.641,130.502439,253.153049,0,0,0,81.174014,0,174.153883,229.536403,130.502439,253.153049,0.000171,-0.000965,0.002935,0.002209,-0.006129,-0.006188,-0.875191,0.171871,1.687698,-0.001267,-0.002555,0.003691,-0.041109,0.905704,-3.438005,0.024721,-0.013145,0.004009
5.779994,187.538028,130.323339,253.137734,0,0,0,81.174583,0,173.767293,229.429309,130.323339,253.137734,0.002809,-0.006318,0.011797,0.00141,0.004707,-0.00722,-0.422814,0.549676,1.731768,0.03445,-0.013927,0.009628,0.107129,1.293843,-1.161034,-0.035773,-0.008071,0.012098
5.799994,187.538,130.497632,253.955086,0,0,0,81.175152,0,173.380703,229.493053,130.497632,253.955086,-0.005228,-0.00594,-0.008734,0.00127,-0.010906,0.007686,0.277718,-0.462642,-0.151853,0.008457,-0.001443,0.001882,-0.009358,-0.537218,-0.583648,-0.025793,0.005776,0.001223
5.819994,187.538,130.725008,254.162663,0,0,0,81.175721,0,172.994113,229.449952,130.725008,254.162663,0.013685,0.007136,-0.012139,-0.002419,0.007865,-0.012175,0.661445,0.482691,0.83344,-0.031249,0.009227,-0.005448,0.705924,-0.387691,-0.571863,0.013459,0.000042,0.00131
5.839994,187.538,130.927145,252.37494,0,0,0,81.176289,0,172.607522,228.927163,130.927145,252.37494,-0.003545,-0.004577,-0.01187,0.001759,-0.000718,0.000696,0.228339,0.480111,0.840548,-0.016264,0.007271,-0.0041,0.470095,-0.151085,-0.478676,0.030055,-0.00005,-0.004188
5.859994,187.538,131.022574,250.861225,0,0,0,81.176858,0,172.220932,229.349114,131.022574,250.861225,0.014545,-0.00443,-0.002513,-0.001079,-0.002889,-0.003679,0.253343,-1.976036,-0.736318,0.024828,-0.003847,-0.019226,-0.648583,-0.658291,-1.121104,0.000279,0.011227,-0.000621
5.879994,187.541999,130.764794,252.105294,0,0,0,81.177427,0,171.834342,229.981739,130.764794,252.105294,-0.003565,0.001658,-0.015366,0.002449,0.000589,0.009636,-0.127451,-0.451337,0.208969,0.028649,-0.00503,0.010701,-0.525265,0.2487,-0.559381,-0.029362,0.003102,0.001699
5.899994,187.401039,130.447801,252.59486,0,0,0,81.177996,0,171.447752,229.56149,130.447801,252.59486,-0.006319,0.007588,-0.006433,0.007139,0.005389,0.00899,-0.295722,0.571747,-0.34975,-0.00722,-0.00581,0.01034,-0.271353,-0.018034,0.188726,-0.008226,-0.016115,0.003649
5.919994,187.425993,130.210078,255.480514,0,0,0,81.178565,0,171.061162,228.6872,130.210078,255.480514,0.007296,-0.000348,-0.011199,-0.000188,-0.002308,0.00863,0.050981,0.43108,-2.392296,-0.037001,0.011295,-0.001996,0.315912,-0.476469,1.118184,0.022831,-0.007253,0.007549
5.939994,187.449993,130.324197,254.204515,0,0,0,81.179133,0,170.674571,228.045734,130.324197,254.204515,-0.000368,-0.004199,0.020571,-0.00107,-0.010218,-0.011334,0.50663,0.6073,-1.540364,-0.012617,0.017698,-0.00174,0.029952,-0.847194,1.57136,0.017821,0.022062,0.016028
5.959994,187.45,130.628833,251.840686,0,0,0,81.179702,0,170.287981,228.722176,130.628833,251.840686,0.00035,-0.00363,0.011583,-0.00218,-0.008391,-0.001853,0.43603,0.732074,-1.284733,0.033827,0.002024,0.014575,0.186225,0.16622,0.082466,-0.018949,0.010613,-0.004054
5.979994,187.45,130.77003,251.369595,0,0,0,81.180271,0,169.901391,229.499638,130.77003,251.369595,0.004379,0.006087,0.024676,-0.00095,-0.000972,-0.010907,-0.08776,1.054788,-0.501094,0.028382,-0.028671,-0.000196,0.087368,-0.690195,-1.509145,-0.011982,-0.019501,0.003538
5.999994,187.643944,130.915608,250.863795,0,0,0,81.18084,0,169.514801,229.11437,130.915608,250.863795,0.006729,-0.000508,0.011484,0.003359,-0.011017,0.006635,-0.218563,0.52941,-1.013613,-0.010889,0.001661,0.002729,0.695816,-0.441881,-3.657575,0.011763,0.000084,0.005949
6.019994,187.568022,130.972824,252.458484,0,0,0,80.850521,0,216.740329,228.523779,130.972824,252.458484,0.000282,-0.002849,0.01222,0.00171,-0.001143,0.002941,-0.081709,-0.369953,-0.933353,-0.037582,0.023384,0.00376,-0.219338,-0.319755,-0.336471,0.009101,0.013536,-0.008836
6.039994,187.509017,130.86897,252.874061,0,0,0,80.837237,0,216.589344,228.568457,130.86897,252.874061,0.00019,0.002398,0.006012,0.00111,-0.002939,-0.019754,-0.01353,0.550427,-0.68789,0.004318,-0.000523,0.011228,-0.579507,0.194993,2.016737,-0.003436,0.000024,0.000907
6.059994,187.412028,130.587021,253.560843,0,0,0,80.823954,0,216.438359,228.808391,130.587021,253.560843,-0.00051,-0.003648,-0.006646,0.003779,-0.010878,-0.003935,-0.302787,-0.058496,-0.568204,0.021805,-0.019735,-0.007535,-0.904747,-0.927999,1.062373,-0.006469,-0.013926,-0.004159
6.079994,187.366013,130.3772,254.173485,0,0,0,80.810671,0,216.287375,228.45789,130.3772,254.173485,0.001649,-0.00349,0.017743,0.00372,-0.008591,0.014215,-0.194661,-0.034677,1.573747,0.009564,-0.005474,-0.003541,-0.827432,-0.764927,1.573704,-0.00565,0.001306,-0.009408
6.099994,187.448976,130.386077,253.394403,0,0,0,80.797388,0,216.13639,228.404515,130.386077,253.394403,0.00038,-0.001761,0.010792,0.007359,-0.002952,0.003083,0.146512,0.571646,2.058731,-0.010264,0.019962,-0.008029,-0.194181,-0.504095,1.500771,0.001618,0.017695,0.011224
6.119994,187.528977,130.469076,252.342971,0,0,0,80.784105,0,215.985405,228.786511,130.469076,252.342971,-0.001699,0.012996,-0.016442,-0.005836,-0.005449,0.015786,0.059985,-0.006564,0.76495,-0.018208,0.007924,0.000757,-0.165788,0.012412,-0.937492,0.012937,0.003774,-0.008264
6.139994,187.687955,130.581916,252.265113,0,0,0,80.770821,0,215.834421,229.238025,130.581916,252.265113,-0.006778,-0.004255,0.007123,-0.008049,0.007056,-0.015851,0.204507,-0.534313,-0.031683,-0.003204,-0.013044,-0.005828,0.066501,0.278851,-2.236523,-0.001216,-0.013345,-0.002362
6.159994,187.72299,130.655208,253.134341,0,0,0,80.757538,0,215.683436,229.124454,130.655208,253.134341,-0.001212,0.004477,-0.010245,-0.000442,-0.000388,0.003884,-0.019943,-0.228711,0.223914,0.032179,-0.005612,0.003387,-0.247546,-0.881654,-1.580606,-0.011397,-0.003763,0.007277
6.179994,187.676013,130.562648,253.028142,0,0,0,80.744255,0,215.532451,228.954401,130.562648,253.028142,0.003928,-0.007336,0.02286,-0.005488,0.006558,0.016876,-0.2898,0.350087,1.616405,0.006148,0.015184,0.006019,-0.188668,0.049312,1.308019,-0.001163,0.009336,0.004071
6.199994,187.532041,130.358981,252.810295,0,0,0,80.730972,0,215.381467,228.605454,130.358981,252.810295,0.005929,-0.004551,-0.000423,0.003117,0.003081,-0.000105,-0.027028,0.264496,1.65141,-0.019812,-0.007993,-0.005157,-0.306295,-0.571075,1.741811,0.007347,0.00821,-0.004617
6.219994,187.550995,130.423301,252.095673,0,0,0,80.717689,0,215.230482,228.298831,130.423301,252.095673,-0.008876,-0.008889,0.005568,0.001251,-0.004708,-0.009007,0.160094,-0.208279,-0.164219,-0.009433,-0.00946,-0.0049,0.185733,0.800691,-2.146871,-0.006166,-0.010165,-0.000921
6.239994,187.41604,130.732228,252.939738,0,0,0,80.704406,0,215.079497,228.86911,130.732228,252.939738,-0.003842,-0.001932,-0.002887,0.003609,0.000548,-0.011679,-0.118677,-0.277569,0.594264,0.026019,0.007765,0.004247,0.398187,1.306719,-2.054648,-0.004141,-0.002902,0.004368
6.259994,187.360017,131.0336,253.224185,0,0,0,80.691122,0,214.928513,229.458584,131.0336,253.224185,-0.002011,-0.009348,-0.00338,0.001821,-0.008137,-0.000593,-0.173494,-0.620568,-1.147911,0.003397,0.005481,-0.003928,-0.169631,-0.921976,-0.202702,0.016134,0.010626,0.008499
6.279994,187.36,131.071749,252.949022,0,0,0,80.677839,0,214.777528,229.709945,131.071749,252.949022,0.005158,0.007935,0.010766,-0.003368,-0.010399,0.010567,-0.150647,-0.489229,-0.616219,-0.016324,0.002311,-0.000021,-0.097622,-1.280473,-0.162802,-0.011262,0.002962,0.006181
6.299994,186.708194,130.630132,252.846401,0,0,0,80.664556,0,214.626543,229.447188,130.630132,252.846401,-0.005257,-0.007055,0.000603,0.002008,0.007015,-0.017552,-0.335465,0.056137,0.274984,-0.013341,-0.006857,0.002889,-0.238888,-0.393954,1.960537,-0.008871,-0.006537,0.000262
6.319994,186.708,130.357731,252.167093,0,0,0,80.651273,0,214.475559,228.768452,130.357731,252.167093,-0.00607,0.006576,0.028261,0.008028,0.001792,-0.011242,0.258013,0.050532,0.753467,0.005874,0.007656,0.007589,-0.528264,-0.641496,2.437438,0.005416,-0.000072,0.004559
6.339994,183.52295,130.301607,252.080056,0,0,0,80.63799,0,214.324574,228.408627,130.301607,252.080056,0.004587,-0.006906,-0.021485,-0.006026,-0.000139,-0.01202,0.289781,-0.146681,2.627611,0.009779,0.005381,-0.001487,0.707162,0.36587,-2.082383,0.00431,0.006108,-0.000498
6.359994,183.522,130.290743,252.999616,0,0,0,80.624706,0,214.173589,228.397373,130.290743,252.999616,-0.001098,-0.001782,0.000763,0.000088,0.001819,-0.004782,-0.091546,-0.229355,0.719519,0.00988,-0.005017,0.011766,0.799653,0.527632,-2.096626,-0.006177,0.002121,0.001529
6.379994,184.673657,130.501935,253.796783,0,0,0,80.611423,0,214.022605,228.296401,130.501935,253.796783,-0.002829,0.001649,-0.003009,0.008617,0.008158,0.004777,-0.461655,-0.125212,0.224173,-0.013703,-0.013847,0.000184,0.322348,0.246397,-1.012786,0.011994,-0.003388,0.005199
6.399994,185.330804,130.668378,255.014123,0,0,0,80.59814,0,213.87162,228.873031,130.668378,255.014123,0.002388,-0.005728,-0.00197,0.001032,0.013228,-0.016104,0.140283,-0.264517,0.134808,-0.008532,0.003954,-0.003009,-0.450141,-1.002193,-0.091725,-0.000846,-0.00345,-0.004117
6.419994,185.331,130.730681,251.577696,0,0,0,80.584857,0,213.720635,228.556188,130.730681,251.577696,-0.003898,0.001378,-0.003659,0.005329,-0.001795,-0.009662,0.313176,-0.438526,-0.418858,0.006395,0.000691,0.001629,-1.06426,-0.863643,3.782639,-0.011057,-0.00213,0.009986
6.439994,185.331,130.688873,250.166137,0,0,0,80.571574,0,213.569651,228.573385,130.688873,250.166137,-0.008229,0.010227,-0.017056,0.00504,0.002979,0.001876,-0.061854,0.079879,1.83754,0.001172,-0.001779,0.00039,-0.200948,0.450033,2.628038,0.008044,0.005228,0.002302
6.459994,185.331,130.738435,251.797284,0,0,0,80.55829,0,213.418666,228.581248,130.738435,251.797284,-0.004721,-0.006795,-0.002505,-0.000048,0.004719,0.005089,-0.038157,-0.105482,1.199568,-0.011286,-0.004789,0.00096,0.664912,0.64522,-2.409928,0.000362,-0.006506,0.006629
6.479994,185.331,130.595184,253.576459,0,0,0,80.545007,0,213.267681,228.190291,130.595184,253.576459,0.006177,0.002457,0.003258,0.011706,-0.001258,-0.003607,-0.464458,0.016962,1.401347,0.006095,-0.001511,0.006458,0.894229,1.776629,-3.177403,-0.008357,-0.008339,-0.001298
6.499994,185.331,130.425952,254.667932,0,0,0,80.531724,0,213.116697,229.049674,130.425952,254.667932,0.003871,-0.003328,0.00285,-0.002446,0.012906,-0.006599,-0.162084,-0.220626,-0.347288,0.017566,-0.003149,-0.007826,0.098757,0.753387,0.252197,0.014193,0.001737,-0.003169
6.519994,185.331,130.571655,253.204124,0,0,0,80.518441,0,212.965712,229.383796,130.571655,253.204124,0.005599,0.001169,-0.004778,0.000589,-0.002695,0.021831,0.337185,-0.214912,-0.310482,-0.009672,0.000669,0.001327,-0.632533,-1.210161,0.149862,0.023767,0.013256,0.005047
6.539994,185.331,130.724743,252.015308,0,0,0,80.505158,0,212.814727,228.600413,130.724743,252.015308,-0.004177,0.00148,-0.00489,0.00048,0.008776,-0.002942,0.598979,-0.242461,-0.637549,-0.002832,0.00198,-0.000799,-0.821881,-0.763289,2.818533,-0.003392,-0.013102,-0.011355
6.559994,185.331,130.855979,253.311278,0,0,0,80.491875,0,212.663743,228.048631,130.855979,253.311278,-0.007859,0.004779,-0.009978,-0.003099,-0.002447,0.003138,0.068095,0.061876,0.81357,0.006107,-0.007277,-0.008078,-0.005443,0.014159,0.731017,-0.009738,-0.006422,-0.01204
6.579994,185.331,130.659881,252.747365,0,0,0,80.478591,0,212.512758,228.155637,130.659881,252.747365,0.002677,-0.002518,0.003126,0.000289,-0.00294,0.00248,-0.295287,-0.383652,1.319913,-0.004737,0.007305,-0.005131,0.612399,1.0154,-2.862446,0.018721,0.012484,0.002545
6.599994,185.331,130.559161,250.979598,0,0,0,80.465308,0,212.361774,228.774208,130.559161,250.979598,-0.005018,-0.00244,0.00446,-0.003899,-0.00167,-0.016254,-0.299729,-0.044245,0.173416,0.001948,-0.000957,0.001178,0.561276,1.058907,-1.982133,0.009723,-0.003185,-0.009606
6.619994,185.331,130.836114,249.844122,0,0,0,80.452025,0,212.210789,230.087113,130.836114,249.844122,0.000518,0.002189,-0.013114,-0.00514,-0.005509,-0.001105,-0.091694,0.111282,0.134092,0.007698,-0.009627,-0.000829,0.034743,0.330826,0.95334,-0.009754,-0.00325,-0.011889
6.639994,185.331,131.287865,246.36417,0,0,0,80.438742,0,212.059804,232.564972,131.287865,246.36417,-0.001309,-0.006557,0.015081,0.006426,-0.001461,0.016944,0.307142,0.378694,-1.723092,-0.006845,0.004036,-0.007548,-0.219968,-0.403114,1.220554,0.003766,0.000639,0.000526
6.659994,185.331,130.216975,258.112977,0,0,0,80.425459,0,211.90882,235.719814,130.216975,258.112977,0.002189,0.010654,-0.011311,0.002111,0.002019,-0.007412,0.097867,0.385528,0.013111,-0.003841,0.009928,0.003187,-0.213632,-0.577984,1.353697,-0.001418,0.006008,-0.002219
6.679994,185.331,127.978691,282.43727,0,0,0,80.412175,0,211.757835,237.633614,127.978691,282.43727,0.00274,-0.000117,-0.015879,0.004349,0.00118,-0.00894,0.848118,0.391308,7.762145,0.006437,0.004372,0.0019,-0.500098,-0.320603,1.126563,-0.00014,-0.007226,0.004698
6.699994,185.331,125.569645,302.414131,0,0,0,80.398892,0,211.60685,235.640882,125.569645,302.414131,0.005429,0.009277,-0.011152,-0.000868,0.003049,0.011333,-0.240999,-1.776902,3.629062,-0.016912,-0.008816,-0.010766,0.078144,0.553179,-0.192005,0.014695,-0.001882,0.008269
6.719994,185.500481,126.134148,296.531616,0,0,0,80.385609,0,211.455866,231.836825,126.134148,296.531616,0.003661,-0.008714,-0.003922,0.012036,0.014066,0.019507,0.808092,-0.303595,1.524497,0.001864,-0.000083,-0.000663,0.695051,0.821274,-2.846166,-0.005503,-0.00324,-0.000357
6.739994,188.742,128.279249,275.895714,0,0,0,80.372326,0,211.304881,231.371339,128.279249,275.895714,-0.003978,-0.006561,-0.001201,-0.001406,0.003343,0.015371,1.996777,-3.31698,-6.27109,0.018655,0.002889,-0.002269,0.200349,0.580428,0.47648,-0.025973,0.010356,-0.010537
6.759994,188.742,129.618469,261.018608,0,0,0,80.359043,0,211.153896,231.687748,129.618469,261.018608,0.008556,0.000668,-0.00168,-0.00011,0.008648,-0.000235,0.638857,0.140197,-0.842549,-0.005192,0.000801,-0.00229,-0.51416,-0.38106,1.494822,0.00604,-0.001046,0.006634
6.779994,188.742,130.469986,257.699947,0,0,0,80.345759,0,211.002912,231.332055,130.469986,257.699947,-0.000207,0.00192,-0.016395,-0.00107,-0.005166,0.025402,-0.193732,2.762616,1.670052,-0.024334,0.016265,-0.00077,-0.470394,-0.62973,1.721527,0.031482,-0.007068,0.003261
6.799994,188.742,131.387555,251.574222,0,0,0,80.332476,0,210.851927,230.753906,131.387555,251.574222,0.007417,0.016295,0.002354,-0.0023,0.004607,-0.0058,-0.717981,-2.01906,-2.419763,0.004441,0.007983,0.010846,0.015674,0.405787,0.318282,0.004279,0.007005,-0.003868
6.819993,188.742,131.786952,238.390554,0,0,0,80.319193,0,210.700942,229.471113,131.786952,238.390554,0.000632,-0.015819,0.010207,0.001919,-0.000578,0.003567,-0.455175,-2.592446,-4.15962,0.017916,-0.003516,-0.003875,0.610189,0.687499,-3.28374,-0.0261,0.011639,-0.014397
6.839993,188.742,131.914829,230.397592,0,0,0,80.30591,0,210.549958,228.452978,131.914829,230.397592,-0.006917,0.002204,-0.016401,-0.002219,-0.003939,-0.006667,0.503701,0.527745,0.151822,-0.01177,0.001928,0.002178,0.316755,0.557762,-1.240158,-0.013334,-0.003285,0.002564
6.859993,188.742,131.226422,235.812786,0,0,0,80.292627,0,210.398973,227.781146,131.226422,235.812786,-0.001212,0.0033,0.018288,0.011675,0.001678,0.004796,-0.264263,2.506563,1.472235,-0.01195,-0.000309,-0.012325,2.726354,3.4143,1.640193,0.014721,-0.009358,0.00363
6.879993,188.742,129.971539,248.763846,0,0,0,80.279344,0,210.247988,227.795715,129.971539,248.763846,0.007417,0.00476,0.001835,-0.002725,-0.009696,-0.02412,-0.963667,1.469516,-0.256283,0.004375,0.009137,-0.003773,6.839107,-3.782397,1.055386,0.016549,-0.000153,0.007089
6.899993,188.660782,129.603303,258.687208,0,0,0,80.26606,0,210.097004,227.85504,129.603303,258.687208,-0.004636,0.000391,0.003649,0.001529,-0.002203,0.003611,-0.906209,-0.41777,1.541859,0.002401,0.004981,0.006087,1.281506,-0.548441,9.186375,0.008113,0.012246,0.00599
6.919993,187.107,130.187325,263.138195,0,0,0,80.252777,0,209.946019,227.448546,130.187325,263.138195,-0.000911,0.005558,0.00392,-0.001819,-0.005319,-0.007846,-1.093328,0.376285,2.547564,0.003949,-0.006666,0.002781,-4.44174,5.279754,-1.388428,-0.009894,-0.006074,0.00563
6.939993,187.107,130.104688,265.975983,0,0,0,80.239494,0,209.795034,228.161412,130.104688,265.975983,0.001779,0.000502,0.00534,0.002089,-0.00411,0.005516,-0.082208,1.72312,1.243176,0.006589,0.001157,0.000791,-0.362153,2.13727,-8.176965,-0.007211,-0.009149,0.000732
6.959993,187.107,130.124383,261.39389,0,0,0,80.226211,0,209.64405,230.173648,130.124383,261.39389,0.003579,0.012546,-0.001428,-0.007707,-0.002021,0.007139,2.298805,-0.025156,-2.174039,-0.014723,0.010237,0.008537,4.254359,1.50739,-3.672105,0.003976,0.003966,0.010177
6.979993,187.155979,130.468435,251.894361,0,0,0,80.212928,0,209.493065,229.864423,130.468435,251.894361,-0.000829,-0.005874,0.007297,0.004626,-0.00185,0.002971,2.38795,1.157685,-4.771373,-0.005753,0.006661,-0.000737,3.905047,-1.506274,0.448005,0.013207,0.010468,-0.009643
6.999993,188.087436,130.425065,243.761874,0,0,0,80.199644,0,209.34208,227.436831,130.425065,243.761874,-0.00044,0.009025,-0.004276,-0.002548,0.005737,-0.021212,-0.094991,2.041525,-1.789766,0.016153,-0.016522,0.006827,-0.845594,-1.271969,5.912306,0.006102,-0.012362,0.005785
7.019993,187.981,130.743024,239.797103,0,0,0,70.403264,0,205.469185,227.489152,130.743024,239.797103,0.003019,0.005681,-0.002831,0.002808,-0.002167,0.005831,-1.339495,0.050915,-3.547753,0.005933,-0.008123,0.014427,-2.849252,1.4533,0.094573,0.002511,-0.010731,0.002251
7.039993,187.981,131.250201,240.869971,0,0,0,70.400776,0,205.327112,229.120155,131.250201,240.869971,-0.003438,-0.001408,0.006347,0.004529,0.001319,-0.004307,-0.957468,0.669283,-2.294279,-0.009675,0.008524,0.003824,-1.889201,1.329622,-5.529763,-0.005617,0.007914,-0.004988
7.059993,187.981,131.088964,243.939785,0,0,0,70.398289,0,205.185039,228.744346,131.088964,243.939785,0.002628,-0.010437,-0.008225,-0.000368,-0.014855,-0.00555,0.616365,-0.492342,-0.228969,-0.022096,0.015158,-0.003048,1.672941,1.767794,-1.454171,0.007366,0.002982,-0.000452
7.079993,187.981,130.653455,251.022266,0,0,0,70.395802,0,205.042967,228.733084,130.653455,251.022266,0.000151,-0.000343,0.007625,0.002929,-0.006613,0.000848,0.618719,0.939182,-2.238789,-0.004356,-0.009222,-0.000191,0.937256,-0.727167,4.403275,0.0069,-0.008426,-0.002249
7.099993,187.981,130.460164,261.636047,0,0,0,70.393315,0,204.900894,229.446902,130.460164,261.636047,-0.00084,-0.00079,-0.012203,-0.000879,-0.013348,0.009487,0.297017,0.588517,-3.096294,0.011924,-0.001363,0.0009,-0.495072,-2.561158,3.789216,0.001422,-0.004161,-0.013046
7.119993,187.981,130.982915,262.800602,0,0,0,70.390828,0,204.758821,228.786661,130.982915,262.800602,-0.005648,0.00061,0.001525,0.006497,0.000915,0.004972,-0.289754,1.673208,-5.063843,0.006762,0.007557,0.007988,-1.866242,-1.84385,4.325631,-0.008896,0.006986,0.002515
7.139993,187.955473,131.113255,257.849402,0,0,0,70.38834,0,204.616749,227.384125,131.113255,257.849402,-0.001631,0.007218,-0.014345,-0.000737,-0.014575,0.007559,-0.600553,1.030542,-6.374777,-0.000058,-0.003456,0.004961,-1.581339,1.467155,1.63617,0.009424,0.00656,-0.000489
7.159993,187.461736,130.521305,254.363525,0,0,0,70.385853,0,204.474676,226.855563,130.521305,254.363525,-0.00255,0.003301,-0.002164,0.003039,0.002354,-0.008634,0.313834,0.015281,-2.393087,-0.016294,-0.007539,-0.003847,-0.433557,-0.723452,-1.079951,0.019387,-0.003926,0.00012
7.179993,187.361,130.624494,249.739319,0,0,0,70.383366,0,204.332603,227.28784,130.624494,249.739319,-0.005639,0.007958,-0.026022,-0.000779,-0.003248,-0.00729,1.142584,-0.256086,-0.840716,0.002484,-0.00811,0.003547,0.447745,-1.93965,-0.131938,0.003665,0.004007,0.007767
7.199993,187.361,131.239437,245.157464,0,0,0,70.380879,0,204.190531,228.246598,131.239437,245.157464,-0.00677,-0.002666,0.008108,-0.00084,-0.00317,-0.00624,1.051612,-0.214394,0.892641,0.015046,0.016601,0.010038,1.826783,-0.091039,1.529735,-0.011725,0.00361,0.005341
7.219993,187.361,131.770936,241.761594,0,0,0,70.378392,0,204.048458,228.865126,131.770936,241.761594,-0.004071,0.007017,-0.000487,0.005138,-0.005239,-0.010888,-0.328753,-0.638353,1.033891,-0.006762,-0.002433,0.000873,1.038183,-0.601393,-4.023899,-0.008161,-0.011945,0.000702
7.239993,187.361,131.814175,243.885955,0,0,0,70.375904,0,203.906385,229.158469,131.814175,243.885955,-0.00322,-0.007985,-0.005348,0.002761,0.001968,-0.004332,-1.19764,-0.818698,0.722788,-0.00566,-0.010897,-0.002879,0.146238,2.206429,0.297995,0.011203,-0.000244,0.00019
7.259993,187.361,130.978639,251.922641,0,0,0,70.373417,0,203.764313,228.328537,130.978639,251.922641,-0.00263,0.001817,-0.019885,-0.002908,0.00203,0.002258,-0.99516,-0.006651,2.445074,-0.00489,0.014061,0.007406,-2.136571,-0.361022,4.605001,0.001803,0.008037,-0.011486
7.279993,187.361,130.079441,257.074849,0,0,0,70.37093,0,203.62224,227.989417,130.079441,257.074849,-0.00241,-0.001149,0.013318,0.000029,-0.005128,0.004309,-0.007152,-0.984742,2.160878,0.002377,0.011361,-0.004266,-1.758171,-2.602975,4.851275,-0.004598,0.005341,0.005364
7.299993,187.361,129.842292,255.261828,0,0,0,70.368443,0,203.480167,227.61256,129.842292,255.261828,-0.00263,-0.00184,0.005303,-0.002089,0.000208,-0.006836,0.290357,-0.039827,4.584642,0.00212,-0.012672,0.001538,0.239849,1.238451,-1.996402,-0.009228,-0.012174,0.002731
7.319993,187.361,129.87253,256.233794,0,0,0,70.365956,0,203.338095,228.100231,129.87253,256.233794,-0.00258,-0.004539,-0.004966,0.001849,0.003929,-0.000722,0.064568,-0.333828,4.545824,-0.003868,-0.009071,-0.001759,0.936039,1.084214,-3.554422,0.000867,0.000965,-0.006157
7.339993,187.369292,130.258946,259.310586,0,0,0,70.363468,0,203.196022,229.770283,130.258946,259.310586,-0.008258,0.001858,0.006716,-0.000429,-0.004117,0.000789,-0.154244,-1.179218,2.396443,-0.008598,0.006095,0.006677,0.113235,-0.921826,-1.995679,0.003729,0.009767,0.009085
7.359993,187.524227,130.872878,255.87111,0,0,0,70.360981,0,203.053949,230.08946,130.872878,255.87111,-0.002522,0.003539,-0.001797,0.00052,0.002848,-0.014355,0.121685,-0.915391,-0.896202,-0.002392,0.00554,0.004561,-0.329077,0.528208,2.014743,0.00402,0.000203,-0.008674
7.379993,187.452,131.313333,249.784847,0,0,0,70.358494,0,202.911877,230.433137,131.313333,249.784847,-0.000741,-0.002648,0.002428,-0.002719,-0.005247,0.012071,0.300586,-0.403363,0.156893,0.010245,-0.010564,-0.004197,-0.069993,-0.695862,0.31105,-0.006236,-0.011286,0.003516
7.399993,187.460143,131.405437,242.391824,0,0,0,70.356007,0,202.769804,229.889095,131.405437,242.391824,0.006168,-0.014336,-0.003968,-0.00277,-0.001012,0.000004,0.067383,0.444737,0.146214,0.012709,-0.004842,-0.00552,-0.452663,-0.185983,1.014878,-0.00501,0.001266,-0.001508
7.419993,187.616,130.664955,242.788907,0,0,0,70.35352,0,202.627731,228.334986,130.664955,242.788907,0.002921,0.003414,0.003067,0.002168,0.007687,-0.008267,0.023596,0.098784,1.200863,0.003363,0.010205,-0.000232,0.118596,0.126938,-0.289543,-0.00441,0.006468,-0.005489
7.439993,187.616,130.123664,249.650465,0,0,0,70.351032,0,202.485659,228.158483,130.123664,249.650465,0.000801,0.006979,-0.005497,0.00143,0.004411,0.017741,-0.14475,-0.426362,1.317948,-0.010125,0.007201,0.002219,0.256911,-0.054285,-2.825973,0.008325,-0.004826,-0.000002
7.459993,187.602892,130.252324,252.787649,0,0,0,70.348545,0,202.343586,228.679224,130.252324,252.787649,-0.003159,-0.000267,0.001997,0.00039,0.000571,-0.002613,-0.287499,0.172726,0.446942,-0.005182,-0.013123,0.00176,0.605545,0.806802,-1.743018,0.00713,-0.012287,0.006648
7.479993,187.353092,130.484647,257.535782,0,0,0,70.346058,0,202.201513,228.943096,130.484647,257.535782,0.003698,0.006488,0.008228,-0.002439,-0.005488,-0.012247,-0.184437,-0.232715,0.243493,0.011764,-0.002854,0.00207,0.545072,0.505588,0.194587,-0.006365,0.006343,-0.011823
7.499993,187.374,131.092373,259.818154,0,0,0,70.343571,0,202.059441,229.607522,131.092373,259.818154,0.00281,-0.004226,0.004481,0.000689,0.000978,0.005484,0.26336,0.888399,-1.207581,0.016298,0.004937,-0.007057,0.248626,0.583042,-0.319416,-0.002731,0.002241,0.003205
7.519993,187.374,131.224133,254.03309,0,0,0,70.341084,0,201.917368,228.931472,131.224133,254.03309,-0.000919,0.001788,-0.014953,-0.004288,-0.005068,-0.006646,0.361245,0.86192,-2.21575,-0.01249,0.00593,0.003056,-0.268175,0.063966,-0.394303,0.002348,-0.001159,0.005879
7.539993,187.384576,130.724589,245.50586,0,0,0,70.338596,0,201.775295,227.783081,130.724589,245.50586,-0.002729,-0.007657,-0.004644,0.000548,0.007136,-0.015187,0.144957,-0.544957,-1.362116,-0.009401,0.000572,0.000351,-0.516811,-0.29926,0.352543,0.006299,-0.003809,-0.000328
7.559993,187.582531,130.514935,245.467693,0,0,0,70.336109,0,201.633223,228.279382,130.514935,245.467693,0.001788,0.003886,-0.007379,-0.008327,-0.002776,-0.020798,-0.418938,0.334275,0.056832,0.005925,0.008027,0.00116,0.030934,-0.880142,-0.172492,-0.002507,0.012254,0.001129
7.579993,187.497,130.465718,249.937931,0,0,0,70.333622,0,201.49115,228.64428,130.465718,249.937931,0.004709,0.001571,-0.014058,-0.005681,-0.004689,-0.004726,0.004259,0.324913,0.189583,0.013297,0.004201,0.003919,0.600166,0.323589,0.494201,-0.008818,0.006762,0.011306
7.599993,187.497397,130.741002,253.331287,0,0,0,70.331135,0,201.349077,230.058084,130.741002,253.331287,0.00564,-0.006187,-0.000125,-0.003671,-0.007489,0.007805,0.705609,-0.353147,-2.142726,-0.005393,-0.005536,0.00405,1.015921,0.948417,-2.534596,0.003475,-0.012893,-0.002485
7.619993,187.502171,130.850131,254.556252,0,0,0,70.328648,0,201.207005,230.58936,130.850131,254.556252,0.002491,-0.002132,-0.008097,0.002888,0.003326,0.004961,0.117261,2.093685,-0.092294,-0.015356,-0.001901,0.0042,-0.098511,0.405504,1.325849,0.012657,0.004064,0.001938
7.639993,187.44522,130.663259,251.903801,0,0,0,70.326161,0,201.064932,228.354216,130.663259,251.903801,0.000331,-0.003999,0.012922,-0.000269,0.00364,0.002631,-0.64034,1.327164,-1.124268,-0.000995,0.013764,0.000841,-1.184399,-0.368214,2.116578,0.007662,0.006769,0.000261
7.659993,187.397113,130.816773,251.974354,0,0,0,70.323673,0,200.922859,227.773574,130.816773,251.974354,-0.003349,-0.001351,-0.004154,-0.00006,0.001841,-0.005067,-0.782787,-0.109259,-1.334692,0.009296,-0.003164,0.00019,-0.529962,-0.597265,0.428444,0.000273,-0.002347,-0.00102
7.679993,187.495318,131.03213,251.766097,0,0,0,70.321186,0,200.780787,228.879231,131.03213,251.766097,0.002828,0.002339,-0.007699,0.003419,-0.000039,-0.016156,-0.336165,-0.448695,-1.749197,0.01047,-0.010767,0.009866,-0.061273,-0.509283,0.202483,-0.005078,-0.009038,-0.00205
7.699993,187.501722,130.715907,247.595702,0,0,0,70.318699,0,200.638714,228.181528,130.715907,247.595702,-0.000299,0.00238,0.003246,0.009148,0.001839,-0.005824,0.408545,0.491372,-0.563059,0.003033,0.000046,-0.001456,0.234871,0.27601,-0.216525,0.001298,0.005535,-0.00137
7.719993,187.508126,130.212896,250.73331,0,0,0,70.316212,0,200.496641,228.217437,130.212896,250.73331,-0.001929,0.008938,-0.018952,0.002562,0.00316,-0.001192,0.766768,0.459632,0.879317,-0.007276,0.008357,-0.005349,0.317899,0.045665,-0.233084,0.004459,0.007059,0.005397
7.739993,187.51453,129.879873,256.586277,0,0,0,70.313725,0,200.354569,228.871878,129.879873,256.586277,-0.002,-0.010113,0.002592,-0.001658,0.015036,-0.004739,-0.127699,-0.607056,-1.611669,-0.002412,-0.001456,-0.002001,-0.273701,-0.746997,-1.120952,0.006739,0.004111,0.002171
7.759993,187.520934,129.929362,255.310602,0,0,0,70.311237,0,200.212496,229.794699,129.929362,255.310602,0.000089,0.007893,-0.010755,-0.00267,-0.004193,-0.00471,-0.883581,-0.870983,-0.969888,0.003718,-0.014035,-0.003719,-0.43545,-0.169704,1.730246,0.000812,-0.002757,0.00254
7.779993,187.527338,130.783544,251.687789,0,0,0,70.30875,0,200.070424,230.997296,130.783544,251.687789,-0.00087,-0.002586,0.003575,0.000369,0.000728,-0.00379,-0.814816,0.660384,0.307518,0.001021,0.000355,-0.00311,-0.675411,-0.014037,2.187111,-0.004658,-0.005569,0.003949
7.799993,187.533741,131.407989,249.730943,0,0,0,70.306263,0,199.928351,230.531452,131.407989,249.730943,0.005288,0.009176,-0.003607,0.00063,-0.001599,-0.000601,0.156051,-0.335732,1.779256,-0.003588,0.00158,-0.00289,-0.123064,-0.890536,0.594109,0.003837,0.008785,0.009378
7.819993,187.540145,131.018634,251.605137,0,0,0,70.303776,0,199.786278,228.63905,131.018634,251.605137,-0.002857,-0.002016,0.000638,0.004209,0.014294,0.004928,0.597047,-0.203239,1.407438,-0.00437,-0.010356,-0.00239,0.12126,0.727572,-0.166809,-0.000368,0.004012,0.002613
7.839993,187.546549,130.326356,254.5802,0,0,0,70.301289,0,199.644206,227.716681,130.326356,254.5802,-0.00343,0.006187,-0.003129,-0.000538,-0.002763,0.015886,0.417317,0.09324,-0.058268,0.002917,-0.008761,0.002678,0.209807,0.715125,-1.940175,0.001749,-0.013113,-0.001858
7.859993,187.552953,130.263913,251.996016,0,0,0,70.298801,0,199.502133,228.434225,130.263913,251.996016,-0.007568,-0.001757,-0.007068,-0.008217,-0.005509,0.007893,-0.442372,-0.335961,-0.443398,0.010027,-0.003042,0.001031,-0.139891,0.152468,-0.866877,-0.005057,-0.002904,-0.010297
7.879992,187.559357,130.575411,252.197323,0,0,0,70.296314,0,199.36006,229.723008,130.575411,252.197323,-0.003821,0.001979,-0.005711,0.000397,0.001018,0.003902,-0.304733,0.18916,-0.708759,0.002803,0.005817,-0.004118,-0.368323,-0.665248,0.557806,-0.000342,0.015193,-0.003433
7.899992,187.613078,131.004216,254.753784,0,0,0,70.293827,0,199.217988,229.732007,131.004216,254.753784,0.002128,-0.007127,-0.012078,-0.009936,0.002519,-0.004537,0.094838,0.105062,0.10358,-0.010955,0.001672,-0.007289,0.382194,0.439008,0.880927,0.009476,0.005564,-0.013146
7.919992,187.683773,131.129412,254.20359,0,0,0,70.29134,0,199.075915,228.57925,131.129412,254.20359,-0.001569,-0.002362,-0.003673,0.004125,-0.001119,-0.008199,0.492358,0.060757,-0.626051,-0.008691,-0.007876,-0.001592,-0.053804,-0.036518,0.661004,0.015958,-0.012353,-0.007262
7.939992,187.622628,130.960115,250.674597,0,0,0,70.288853,0,198.933842,227.994043,130.960115,250.674597,0.000439,-0.00241,-0.006949,-0.002927,-0.003019,-0.001593,0.197982,-0.119321,-0.470629,0.007054,0.006325,-0.008877,0.026179,0.051806,-0.640943,-0.005062,0.003304,0.008144
7.959992,187.525937,130.884629,248.503268,0,0,0,70.286365,0,198.79177,228.56988,130.884629,248.503268,0.00037,0.001548,-0.016886,0.006976,0.010175,0.004648,-0.297041,0.14282,-0.149862,0.00589,-0.003666,-0.000313,0.275635,0.804733,-2.693257,-0.013377,0.010797,-0.008264
7.979992,187.462022,130.719763,252.87878,0,0,0,70.283878,0,198.649697,229.179557,130.719763,252.87878,0.00019,0.007018,-0.004295,0.001622,-0.003545,-0.012184,-0.487178,0.61526,-1.699179,-0.007245,-0.010497,0.00015,-0.029903,0.553426,-2.553644,-0.004233,-0.012261,0.000267
7.999992,187.450602,130.488038,255.953277,0,0,0,70.281391,0,198.507624,228.65618,130.488038,255.953277,0.003929,-0.007614,0.003157,-0.000619,0.007136,-0.005762,0.028213,0.178787,-1.503875,-0.009279,-0.003943,0.00071,-0.552641,-1.138804,1.021266,0.016252,-0.007772,-0.004968
8.019992,187.42571,130.428143,255.354169,0,0,0,58.074982,0,203.021377,228.415332,130.428143,255.354169,0.000811,0.004755,-0.004087,-0.003869,-0.015561,-0.001342,0.31775,0.23063,-0.079144,0.007584,0.001218,-0.00046,-0.349997,-0.043848,3.889896,0.013611,0.012872,0.000638
8.039992,187.512963,130.79611,251.700334,0,0,0,58.281772,0,203.421036,228.579287,130.79611,251.700334,-0.001359,-0.000758,-0.001721,-0.001891,0.000904,-0.00206,0.092756,-0.100444,1.411801,0.014247,0.005378,0.009496,-0.354198,-0.2789,1.850779,-0.010331,0.010251,0.005458
8.059992,187.523,131.210092,250.739976,0,0,0,58.488562,0,203.820696,228.923619,131.210092,250.739976,0.006237,0.002029,-0.00288,0.001329,-0.005458,-0.005539,-0.14225,-0.709688,0.719354,-0.005862,-0.008145,-0.003855,-0.020857,-0.17384,-1.955548,-0.014638,-0.0164,0.007229
8.079992,187.523,131.215758,249.53314,0,0,0,58.695353,0,204.220355,229.16083,131.215758,249.53314,-0.001717,-0.004937,-0.00244,-0.002668,-0.00534,0.001987,-0.009361,-0.410194,0.833956,-0.011388,-0.004751,-0.009528,0.378288,1.028181,-2.03514,0.000004,-0.006174,-0.007085
8.099992,187.523,130.596516,250.627192,0,0,0,58.902143,0,204.620015,229.329866,130.596516,250.627192,0.000959,0.002647,-0.004809,-0.0019,-0.011348,0.011866,0.166153,0.197058,0.113815,0.004664,0.011144,-0.002173,0.050845,-0.090673,-0.263926,0.006897,0.025368,0.002626
8.119992,187.487915,130.156558,252.807758,0,0,0,59.108934,0,205.019674,229.105186,130.156558,252.807758,0.00003,0.00309,-0.003501,0.002448,0.002924,0.013909,-0.258998,0.258077,0.417004,0.00555,0.01055,-0.000221,-0.187329,-0.236305,1.618422,-0.003866,-0.002579,0.00178
8.139992,187.484,130.217586,256.150575,0,0,0,59.315724,0,205.419333,228.421319,130.217586,256.150575,0.003119,-0.008805,0.002438,0.000201,-0.005077,0.005413,-0.231011,0.240497,0.817862,0.0062,-0.019348,-0.003589,-0.732625,-0.346946,2.235338,0.004307,-0.013926,0.000291
8.159992,187.484,130.402957,257.888816,0,0,0,59.522514,0,205.818993,228.425378,130.402957,257.888816,-0.000778,-0.001813,0.00126,-0.002939,-0.003501,0.006719,0.113404,-0.820982,0.652435,-0.003406,-0.001417,0.007336,-0.531189,0.116977,0.491706,-0.003637,-0.004354,-0.00097
8.179992,183.609364,131.106973,248.915961,0,0,0,59.729305,0,206.218652,229.402505,131.106973,248.915961,-0.00139,0.003388,0.007018,-0.004549,-0.000801,-0.000727,0.313931,-0.39049,1.047065,-0.005589,0.018902,0.00663,0.365447,0.927221,-1.711363,-0.002361,0.009565,-0.004349
8.199992,183.177,131.63967,242.320254,0,0,0,59.936095,0,206.618312,232.688607,131.63967,242.320254,0.003658,0.005829,-0.008474,0.003207,-0.00076,-0.006368,0.342989,-0.603716,-0.725023,-0.010308,0.005885,0.00545,0.855077,0.388172,-2.62733,0.007896,0.008141,-0.00352
8.219992,183.177,130.351357,256.82782,0,0,0,60.142886,0,207.017971,236.711187,130.351357,256.82782,-0.002508,0.001182,-0.003922,0.005109,0.005777,-0.002691,-0.26799,-0.054856,-0.102115,-0.005962,-0.011103,-0.000218,0.240812,0.10731,0.203266,0.009449,-0.018989,-0.012197
8.239992,183.177,128.158363,282.669642,0,0,0,60.349676,0,207.417631,238.399496,128.158363,282.669642,0.004797,-0.006637,0.008455,0.00632,-0.003426,-0.000491,-0.480976,0.254828,-0.125811,0.016341,-0.000944,0.004038,-0.832688,-0.897245,3.041503,-0.001496,-0.004346,-0.001144
8.259992,183.177,126.065983,298.766339,0,0,0,60.556466,0,207.81729,235.804202,126.065983,298.766339,-0.000238,0.005005,0.002942,0.003681,0.009475,-0.00022,-0.158847,-0.036595,0.350173,0.012611,0.019542,0.001711,-0.606659,-0.708165,1.291989,-0.003719,0.009934,0.004318
8.279992,183.177,126.407515,291.245272,0,0,0,60.763257,0,208.216949,231.975296,126.407515,291.245272,-0.00068,-0.004396,0.010947,0.005279,-0.006474,-0.002309,0.260675,0.088931,1.339851,-0.01254,-0.003951,0.003269,0.285199,0.700126,-1.85993,0.004647,0.006941,0.010977
8.299992,183.177,128.391999,277.307364,0,0,0,60.970047,0,208.616609,233.089771,128.391999,277.307364,0.000609,0.012813,0.000424,-0.002567,-0.000372,0.000779,0.345267,-0.412283,1.039978,-0.008542,-0.015815,-0.002548,0.56553,0.847592,-2.464313,0.000532,-0.015021,0.005232
8.319992,187.004857,129.759902,266.043711,0,0,0,61.176838,0,209.016268,234.200243,129.759902,266.043711,-0.011695,-0.014409,-0.00015,-0.010027,-0.009936,-0.009696,0.394051,5.057097,4.809027,0.007904,-0.000896,0.000219,0.432352,0.710224,-1.215881,-0.008197,-0.002715,0.003111
8.339992,187.432,130.425398,263.407106,0,0,0,61.383628,0,209.415928,233.638911,130.425398,263.407106,0.000305,0.008721,0.004448,0.004324,-0.001224,-0.001783,-0.733946,-5.291856,-4.994751,0.014977,0.008826,-0.002729,-0.105089,-0.676344,1.162714,-0.00824,0.005177,0.00345
8.359992,187.098248,131.100964,258.652571,0,0,0,61.590418,0,209.815587,231.930592,131.100964,258.652571,0.005848,0.000193,-0.000738,-0.001448,-0.009757,-0.00234,-0.98852,-4.755353,-1.092297,-0.00952,-0.010732,0.013274,-0.498705,-0.898733,2.143734,0.006164,-0.000018,0.006709
8.379992,187.061,131.738232,244.935161,0,0,0,61.797209,0,210.215247,229.649575,131.738232,244.935161,0.001612,0.004368,-0.002569,0.002428,0.002795,0.003408,-1.048766,3.395495,2.754491,-0.00889,-0.004263,-0.006612,-0.397961,-0.157601,2.754353,0.001502,-0.010126,0.00604
8.399992,187.061,131.958711,233.65836,0,0,0,62.003999,0,210.614906,228.507113,131.958711,233.65836,-0.006957,-0.003847,0.007946,-0.010315,-0.005577,-0.010354,0.301942,0.543828,0.600094,0.004605,0.011144,-0.00585,0.231645,0.094318,-1.475595,-0.006497,0.004184,0.000772
8.419992,187.061,131.151647,230.536544,0,0,0,62.21079,0,211.014565,227.069583,131.151647,230.536544,0.006585,-0.005659,0.000953,-0.002043,-0.003971,0.01383,1.222017,0.442481,0.620341,0.013227,0.007122,0.004116,0.793932,1.696181,-2.272098,-0.008129,0.002461,0.00148
8.439992,187.498206,129.976996,244.295221,0,0,0,62.41758,0,211.414225,226.833805,129.976996,244.295221,0.001162,-0.001862,-0.001619,-0.004689,-0.007069,-0.000984,0.834957,-0.875636,-0.745896,-0.003003,-0.01818,0.002301,0.370062,0.552154,-1.691935,0.004165,-0.006077,0.00221
8.459992,186.932572,130.014994,259.303697,0,0,0,62.62437,0,211.813884,228.97906,130.014994,259.303697,-0.003528,-0.004889,-0.010446,0.002827,-0.002252,0.000539,0.142061,-0.385129,1.767571,-0.00395,-0.007864,0.006338,-0.333115,-0.890785,0.032111,0.002551,-0.00521,-0.003918
8.479992,186.460079,130.176035,264.879512,0,0,0,62.831161,0,212.213544,228.718246,130.176035,264.879512,0.005326,0.000848,-0.001724,0.00285,-0.007698,-0.001989,-0.503768,-0.149585,2.945623,-0.010577,0.007444,-0.000057,-0.844463,-0.672739,3.305603,0.006278,0.004276,-0.00281
8.499992,186.415,130.022522,266.221867,0,0,0,63.037951,0,212.613203,228.737952,130.022522,266.221867,0.00487,0.00141,-0.0005,-0.000249,0.010523,-0.007118,-1.339741,-0.657024,1.503485,0.001185,0.001582,-0.011625,-0.434976,-0.35151,1.11206,-0.006075,-0.002307,-0.001131
8.519992,186.415,130.251437,262.501659,0,0,0,63.244742,0,213.012862,229.692773,130.251437,262.501659,0.007489,-0.002898,0.008756,-0.004208,0.001933,0.002156,-1.012533,-1.258976,1.780997,0.005948,-0.007746,0.001065,2.00666,5.513142,8.968384,-0.003881,-0.005909,-0.011916
8.539992,187.357783,130.231898,256.179533,0,0,0,63.451532,0,213.412522,229.943229,130.231898,256.179533,0.005441,-0.00198,-0.000716,0.000328,0.00124,-0.002658,0.042692,-0.306726,-0.337281,-0.006505,-0.001083,0.003289,4.4499,-4.985152,-0.085168,-0.010867,-0.00713,0.003644
8.559992,187.463,130.230361,246.452823,0,0,0,63.658322,0,213.812181,227.869981,130.230361,246.452823,-0.005495,0.015963,0.004308,-0.004898,0.004799,-0.006299,1.54867,-0.765734,2.517592,0.000257,0.004638,-0.007346,0.410808,-1.779721,-9.48561,-0.006112,0.005775,0.00299
8.579992,187.463,130.982285,237.00214,0,0,0,63.865113,0,214.211841,227.307678,130.982285,237.00214,-0.003051,-0.003622,-0.002197,0.000998,-0.002967,0.001377,1.389235,-0.552676,-2.134803,0.00104,-0.006356,0.001736,-1.566819,3.570331,-4.714176,0.001487,0.00546,0.00242
8.599992,187.463,131.13004,242.392113,0,0,0,64.071903,0,214.6115,228.990638,131.13004,242.392113,0.004797,0.008515,-0.006008,-0.000569,0.009605,-0.000989,-0.224766,-1.698106,-1.364933,-0.003538,-0.013017,0.000331,-2.243096,0.430164,-1.350413,0.004489,-0.010064,-0.000319
8.619992,187.463,130.98218,248.498475,0,0,0,64.278694,0,215.01116,229.122047,130.98218,248.498475,-0.006745,-0.009842,0.013802,-0.001959,-0.001835,-0.00204,-0.591811,-0.156305,1.233856,0.003727,-0.004634,0.012345,-0.312563,-1.166483,4.772828,-0.000258,-0.004073,-0.00074
8.639992,187.463,130.977742,252.509527,0,0,0,64.485484,0,215.410819,229.182315,130.977742,252.509527,-0.002382,-0.002153,0.003124,0.001159,0.006566,0.001878,-0.373161,1.355049,0.290234,0.010237,0.007005,-0.004653,1.205537,-2.417778,1.101553,-0.010136,-0.000721,-0.002769
8.659992,187.463,130.598298,258.76411,0,0,0,64.692274,0,215.810478,229.63801,130.598298,258.76411,0.003098,0.003558,0.006938,-0.002269,0.00762,-0.020121,0.204789,-0.451526,-0.748237,-0.005753,-0.003646,-0.001221,-0.896162,1.016886,-3.160802,0.001935,0.005198,0.004217
8.679992,187.463,130.47905,260.679502,0,0,0,64.899065,0,216.210138,229.139548,130.47905,260.679502,-0.003537,0.00459,-0.006704,0.007086,0.004261,0.008588,0.333336,1.441789,1.117401,0.000168,-0.005609,0.008246,0.901579,1.943694,-1.278486,0.003769,-0.005496,-0.004526
8.699992,185.653025,130.164501,260.893461,0,0,0,65.105855,0,216.609797,227.874018,130.164501,260.893461,0.007176,0.000332,-0.001902,-0.007094,0.00331,0.006151,-0.437188,0.429073,1.509377,0.007147,-0.004311,0.004771,1.006247,2.612781,0.563332,0.00298,-0.001002,-0.001051
8.719992,185.949373,129.885676,256.942599,0,0,0,65.312646,0,217.009457,227.071565,129.885676,256.942599,-0.002126,0.005468,-0.0027,-0.002672,0.009278,-0.003716,-0.662866,-1.405704,-0.225596,0.005221,0.005136,-0.003676,-0.196708,-0.748067,-0.254138,0.006628,-0.002909,0.000239
8.739992,186.614022,130.346488,251.416296,0,0,0,65.519436,0,217.409116,228.182966,130.346488,251.416296,0.001968,-0.003746,0.000419,0.001398,-0.010762,-0.000451,-0.468211,-0.20967,0.646346,-0.000518,0.000722,-0.004929,-1.015229,-0.959053,2.349443,-0.004056,0.001068,-0.003968
8.759992,186.682,131.042859,248.520528,0,0,0,65.726226,0,217.808775,229.497422,131.042859,248.520528,0.00288,-0.001611,-0.002999,-0.001229,0.009272,0.006767,1.465813,3.194099,2.584441,-0.007677,-0.010475,-0.003551,-1.917254,-1.766533,-1.478362,-0.000112,-0.004488,-0.000421
8.779992,186.682,131.633694,245.886979,0,0,0,65.933017,0,218.208435,229.606845,131.633694,245.886979,0.004789,0.002148,0.002688,0.005317,0.000764,-0.012782,2.955419,-2.407981,-2.809898,-0.00758,0.000695,-0.002251,-0.755385,2.170836,2.546869,0.00074,-0.000042,-0.011136
8.799992,186.682,131.422998,245.770938,0,0,0,66.139807,0,218.608094,229.338282,131.422998,245.770938,0.007179,0.006548,-0.000209,0.010218,0.015184,0.007881,0.753509,-1.729004,-0.444158,0.007074,0.003589,0.005087,-0.575205,-0.581401,-0.844294,-0.001929,0.014154,-0.008821
8.819992,186.976166,130.557841,247.582694,0,0,0,66.346598,0,219.007754,227.668287,130.557841,247.582694,0.000543,-0.009653,-0.005168,-0.002005,0.001876,-0.006174,-2.130407,1.403313,0.61164,0.008289,-0.007076,-0.007375,1.166683,1.81352,-0.304546,0.004197,-0.006551,0.000606
8.839992,187.173623,130.010538,252.426508,0,0,0,66.553388,0,219.407413,226.295773,130.010538,252.426508,-0.003738,-0.002983,-0.0044,-0.00197,0.006298,-0.007769,-1.146261,1.623109,0.497788,-0.001676,-0.005581,0.009093,0.83204,1.395715,-2.765972,-0.006315,0.001017,-0.001339
8.859992,187.348527,130.139796,258.162097,0,0,0,66.760178,0,219.807073,227.699884,130.139796,258.162097,-0.00331,0.007905,0.005276,-0.003689,0.004301,0.005494,1.071684,-1.623215,-1.719085,-0.001,0.002956,0.007621,0.035273,-1.502101,-0.971899,-0.008239,0.00012,-0.002829
8.879992,187.366,130.281569,261.972185,0,0,0,66.966969,0,220.206732,229.552585,130.281569,261.972185,0.000069,-0.001236,-0.000787,0.000208,0.00396,-0.022918,1.472318,-0.613644,1.453208,-0.00193,0.005739,0.004491,0.130929,0.202158,-0.941783,-0.004821,0.00076,-0.007808
8.899992,187.366,130.589758,256.9666,0,0,0,67.173759,0,220.606391,229.068568,130.589758,256.9666,-0.001729,0.003378,0.002319,-0.00091,0.000771,0.005628,0.367594,1.274769,1.946819,-0.00228,0.001982,0.009488,0.616292,1.108331,2.420337,-0.002981,-0.011285,-0.005901
