frame_id,dx_pixels,dy_pixels,time,sensor_dist_01.dist,sensor_s00017-2.chdata,sensor_s00017-3.chdata,sensor_s00018-1.chdata,sensor_s00018-2.chdata,sensor_s00018-3.chdata,sensor_s0011-1.chdata,sensor_s0011-2.chdata,sensor_s0011-3.chdata,sensor_s0017-1.chdata,sensor_s0017-2.chdata,sensor_s0017-3.chdata,sensor_v00013.AccX,sensor_v00013.AccY,sensor_v00013.AccZ,sensor_v00023.AccX,sensor_v00023.AccY,sensor_v00023.AccZ,sensor_v00024.AccX,sensor_v00024.AccY,sensor_v00024.AccZ,sensor_v00028.AccX,sensor_v00028.AccY,sensor_v00028.AccZ,sensor_v00029.AccX,sensor_v00029.AccY,sensor_v00029.AccZ,sensor_v00033.AccX,sensor_v00033.AccY,sensor_v00033.AccZ
1,0.0,0.0,0.03333333333333333,187.531,130.86719,255.41659666666666,0.0,0.0,0.0,79.40939666666667,0.0,199.48542,228.86661,130.86719,255.41659666666666,0.00383,-0.00020333333333333328,0.0017633333333333355,-0.004369999999999999,-0.002796666666666668,0.0027166666666666667,-0.27580666666666664,-0.04396666666666668,0.9892333333333333,-0.0013566666666666662,0.0016633333333333335,-0.00033666666666666567,0.2998966666666667,0.1046733333333334,-3.077993333333333,-0.0014466666666666664,0.0025233333333333323,0.012246666666666668
2,-0.12310445860578056,1.344287149738534,0.06666666666666667,187.531,130.79409666666666,246.01446333333334,0.0,0.0,0.0,79.42883233333333,0.0,199.62724,227.19011333333333,130.79409666666666,246.01446333333334,-0.0018366666666666666,0.003763333333333333,0.00017333333333333263,-0.0010466666666666667,0.0007333333333333334,-0.0038533333333333336,-0.21068,-0.26442666666666664,0.6001833333333333,0.0017933333333333332,0.00068,0.00262,-0.5866333333333333,-0.15900666666666669,0.0026233333333333386,0.0061066666666666665,0.009413333333333333,-0.03590333333333333
3,-0.12310445860578056,1.344287149738534,0.1,187.531,130.57181,249.89046,0.0,0.0,0.0,79.448269,0.0,199.769061,228.46765,130.57181,249.89046,-0.01494,-0.0023200000000000004,0.012539999999999999,0.00713,0.00577,-0.00349,-0.03348999999999999,-0.47837,-2.0366999999999997,0.00229,-0.01009,-0.007230000000000001,0.09586000000000006,0.9065699999999999,1.1541000000000001,0.0009000000000000015,0.00271,-0.032
4,0.0053642684612214,3.009390266578748,0.13333333333333333,187.56066666666666,130.49469,256.3517606666667,0.0,0.0,0.0,79.46770566666666,0.0,199.910881,227.78463333333335,130.49469,256.3517606666667,0.0009866666666666695,0.0058566666666666645,-0.006890000000000003,0.0021366666666666635,-0.0038633333333333328,0.010816666666666665,-0.010845333333333262,0.6478520000000001,1.5159786666666666,0.005176666666666666,-0.0005666666666666663,0.0018166666666666674,0.36723800000000006,-0.40055933333333277,-1.0699379999999985,0.005963333333333338,0.0007733333333333273,0.012553000000000005
5,0.0053642684612214,3.009390266578748,0.16666666666666666,187.641,130.64258866666668,252.62978333333334,0.0,0.0,0.0,79.48714133333334,0.0,200.052701,228.22328366666667,130.64258866666668,252.62978333333334,-0.002250000000000001,0.00010000000000000417,-0.011980000000000008,-0.00040666666666666846,-0.004680000000000008,0.013733333333333328,0.0666323333333333,-0.08318699999999965,0.7313700000000001,0.0012499999999999987,-0.004420000000000002,0.0015933333333333338,0.07105833333333317,-0.09450100000000056,-0.8180709999999993,-0.007063333333333334,0.002700000000000008,-0.002567000000000024
6,0.13564832869633392,4.713705016107838,0.2,187.541,130.70271,250.400527,0.0,0.0,0.0,79.506578,0.0,200.194521,227.901527,130.70271,250.400527,0.00838,-0.00894,-0.00266,0.00431,0.01258,-0.021649,0.223169,-0.836567,0.382483,-0.00134,0.005479999999999999,0.00237,-0.37341199999999997,0.16171599999999997,0.502132,-0.0004899999999999991,-0.01525,-0.0031800000000000023
7,0.13564832869633392,4.713705016107838,0.23333333333333334,187.548,130.53499833333333,251.004921,0.0,0.0,0.0,79.526014,0.0,200.336341,228.00684033333334,130.53499833333333,251.004921,0.0036233333333333326,-0.0071333333333333335,-0.005390000000000001,0.0011866666666666727,0.002166666666666668,-0.01136333333333333,0.06263199999999988,-0.680581333333333,2.0645233333333333,-0.0037100000000000054,-0.00010666666666666707,-0.002710000000000005,-0.1569496666666665,-0.020052333333332784,-0.059255666666667706,0.005019999999999993,0.012909999999999996,0.005056000000000022
8,0.3362218814595508,5.742770256165272,0.26666666666666666,187.49900066666666,130.61816866666666,256.021895,0.0,0.0,0.0,79.54545033333333,0.0,200.478162,228.81085733333333,130.61816866666666,256.021895,0.003310000000000004,-0.0009366666666666671,0.010190000000000012,-0.0025933333333333364,-0.00916,-0.014560333333333383,-0.13797900000000007,-0.6421133333333343,-0.4447133333333335,0.005249999999999984,0.002983333333333312,0.0486993333333332,0.148672,0.6848943333333334,-0.7712603333333335,-0.008856666666666662,-0.011549999999999998,-0.01309666666666668
9,0.3362218814595508,5.742770256165272,0.3,187.519,130.861508,252.399976,0.0,0.0,0.0,79.564887,0.0,200.619982,228.639256,130.861508,252.399976,-0.00139,0.01075,0.022840000000000003,0.0038700000000000006,-0.00366,0.02436,0.300115,-0.7160299999999999,-0.574097,-0.00648,0.00991,-0.06662700000000002,0.251869,-0.7386240000000001,0.39172799999999997,0.0014700000000000008,0.016120000000000002,0.01922
10,0.5010207384993919,6.784444676336534,0.3333333333333333,187.57533266666667,130.71753766666666,250.68883833333334,0.0,0.0,0.0,79.584323,0.0,200.761802,227.60220966666668,130.71753766666666,250.68883833333334,-0.0011566666666666487,0.0011603333333332997,0.0039700000000000065,-0.0005799999999999959,-0.00028333333333331514,0.01888999999999998,0.29440166666666606,0.511955666666668,0.7345183333333323,-0.00042333333333334933,-0.006149999999999961,0.03464966666666665,0.10333100000000117,-0.23757433333333178,-0.576346000000001,0.004806666666666695,-0.008756666666666637,-0.004573333333333355
11,0.5010207384993919,6.784444676336534,0.36666666666666664,187.635,130.72,253.97500066666666,0.0,0.0,0.0,79.60375933333334,0.0,200.903622,227.630228,130.72,253.97500066666666,-0.008466666666666674,0.0019066666666666676,-0.0031066666666666716,-0.004420000000000004,0.008093333333333348,-0.0001266666666666482,0.1415193333333334,0.0486560000000007,0.05371566666666827,0.010123333333333331,0.0014499999999999895,-0.011142333333333386,-0.43233966666666707,-0.30581033333333424,0.9453276666666675,-0.005670000000000002,-0.0013400000000000087,0.0007033333333333492
12,0.7161135317805929,7.966615440309852,0.4,187.649,130.819918,252.693758,0.0,0.0,0.0,79.623196,0.0,201.045442,228.250183,130.819918,252.693758,-0.00296,-0.00346,0.00054,0.0007399999999999998,-0.00672,0.004150000000000001,-0.17727400000000001,0.043737999999999944,-1.202566,-0.005810000000000001,0.00722,-0.0020589999999999983,0.47908500000000004,0.199143,-0.91664,0.0014199999999999994,0.0004999999999999996,0.006899999999999998
13,0.7161135317805929,7.966615440309852,0.43333333333333335,187.482001,130.61339966666668,252.832247,0.0,0.0,0.0,79.64263199999999,0.0,201.18726266666667,228.45966066666668,130.61339966666668,252.832247,-0.001673333333333346,-0.003356666666666657,-0.00392,-0.0025266666666666723,-0.006690000000000009,-0.011916666666666662,-0.17508833333333318,0.4505696666666667,-1.4962059999999995,0.004650000000000017,-0.008876666666666665,0.012452666666666713,-0.2221500000000004,-0.3162776666666665,0.629770666666668,0.0073833333333333286,0.00011000000000000419,-0.013880000000000014
14,0.7123417525880313,8.624631599398526,0.4666666666666667,187.44666666666666,130.72250766666667,251.726729,0.0,0.0,0.0,79.66206833333334,0.0,201.329083,228.162564,130.72250766666667,251.726729,-0.0010933333333333333,0.0008366666666666668,-0.010323333333333332,0.0011266666666666669,0.00045,-0.0028333333333333335,0.180483,0.15197633333333332,0.14897466666666667,0.006890333333333333,0.0011066666666666668,-0.013349,-0.4863553333333333,0.7152426666666667,0.7933573333333335,-0.0052899999999999996,0.00047666666666666674,0.007006
15,0.7123417525880313,8.624631599398526,0.5,186.906013,130.81491,254.003742,0.0,0.0,0.0,79.681505,0.0,201.470903,228.189898,130.81491,254.003742,0.00749,-0.0023500000000000014,-0.018290000000000004,-0.006339999999999998,0.012590000000000002,-0.00685,-0.002692,0.191849,-0.66987,-0.01612,-0.00862,0.02260899999999999,0.370894,-0.09884000000000004,-2.052722,0.00305,-0.00547,-0.01463
16,0.7574602578125678,8.459723729360348,0.5333333333333333,184.35459976332152,130.506602473107,253.65031658564595,0.0,0.0,0.0,79.70094138871944,0.0,201.6127258365418,228.23454163974864,130.506602473107,253.65031658564595,-0.004036820007667046,-0.0013368120072670263,0.011286890344517199,-0.004890209010450517,0.014117341033718336,0.00022934235045088402,0.025341165391602867,0.33091476177142193,-1.2346307352867638,0.007357345033918343,0.004333242995483109,-0.007426201693418007,0.3575333209660493,-0.3354478729769811,1.2314156094138013,0.0016164399886661055,0.002693416004133538,0.0031500070003500176
17,0.7574602578125678,8.459723729360348,0.5666666666666667,183.28035886596666,130.91648291763332,249.5812875839,0.0,0.0,0.0,79.72037791643332,0.0,201.7545472546,228.4710535565833,130.91648291763332,249.5812875839,0.0007164351666666768,0.0020473366666666367,0.0031042104499999904,0.0012494480000000245,0.0024634793333333264,-0.006293453833333329,-0.06056779985000033,0.041028414766665855,0.0859910569333302,-0.0016641074499999494,-0.012906483166666675,-0.00296153261666658,-0.5158133586000007,-0.6733310685666696,0.9244873132833384,-0.004376168166666689,0.00017997900000000098,-0.009153218333333338
18,0.7284862321989749,8.409593937213572,0.6,184.32703059965002,130.7990536245,253.1390981252,0.0,0.0,0.0,79.73981458304999,0.0,201.8963682546,228.50388434345,130.7990536245,253.1390981252,0.0038701340000000042,-0.004258584049999988,0.02057796509999997,-0.0007197584999999932,-0.0016201100000000032,0.004238850049999967,-0.12031252849999961,0.09300284279999939,0.125155103650001,-0.013229120049999975,0.010248643049999989,-0.008060014999999972,-0.13584487724999947,0.5337719563999994,-0.6141807645000006,-0.001749756999999993,0.006150279500000008,0.010328284099999979
19,0.7284862321989749,8.409593937213572,0.6333333333333333,185.23899266776667,130.53499692501666,255.66086645635,0.0,0.0,0.0,79.75925024976667,0.0,202.03818825460002,228.88804479945,130.53499692501666,255.66086645635,0.003816461666666668,0.0039599925000000005,-0.006200122716666663,0.00016303733333333618,0.005207343666666661,-0.01951305655,0.4102582517666665,-0.26771732015000005,0.039561098516667115,0.007023199049999998,-0.004930602999999995,-0.0027340778999999926,0.2777646711833333,0.13760585160000002,0.43767402604999917,0.004076739166666666,-5.355111666665788e-05,-0.0023162078833333347
20,0.7266867289142738,8.58295633487387,0.6666666666666666,185.239,130.79980156476668,254.09536148105002,0.0,0.0,0.0,79.77868691643333,0.0,202.18000825459998,227.59141532926668,130.79980156476668,254.09536148105002,0.007102530216666719,-0.0015829813333333494,-0.0092670812833333,-0.0017869136666666555,0.003812652833333364,0.004771508233333235,-0.10464549959999948,0.19036691754999982,-0.24767565761666585,0.004379503500000022,-0.001792752216666707,0.007239718883333316,0.060603830733334585,-0.36448479733333156,0.7743157776833348,-0.005882804333333358,0.0016166916666666654,0.009102076216666694
21,0.7266867289142738,8.58295633487387,0.7,189.00090275465,130.81522424365,251.0959153571,0.0,0.0,0.0,79.79812358305,0.0,202.32182825459998,227.3002521229,130.81522424365,251.0959153571,-0.003509565000000036,0.0035702929999999757,-0.00038086995000001067,0.003969294050000058,-0.006849855000000012,-0.008257782100000017,-0.3062231357500004,-0.42961415775000017,0.5372508463499978,-0.010419544500000037,0.009849239050000062,-0.009638730050000021,-0.03122222180000064,0.37062855204999723,-1.6459538021000013,0.0042994675000000435,-0.00439975800000002,0.010759909500000008
22,0.754773737288474,8.530184145556973,0.7333333333333333,188.85600099984998,130.59250092969998,250.68073314623334,0.0,0.0,0.0,79.81755924976666,0.0,202.4636482546,228.04754703181666,130.59250092969998,250.68073314623334,-0.0004037528333333297,0.0003293175000000058,0.00891383533333333,0.004797454233333326,0.0007636868333333307,-0.017053653116666657,0.07481027989999983,-0.017642200783333506,0.6124245399666669,0.003197004666666665,-0.00967665638333333,-0.004613361333333333,0.2172883043833333,0.20653937245000054,-0.7767746104500004,-0.0027030598333333353,-0.002320206999999999,0.0013627643333333373
23,0.754773737288474,8.530184145556973,0.7666666666666667,186.64705266271665,130.60566409483334,253.49538209896667,0.0,0.0,0.0,79.83699591643332,0.0,202.6054692546,227.95844436285,130.60566409483334,253.49538209896667,0.00284656716666666,0.006303065333333316,0.00021460156666672833,0.0013298664999999914,0.0043671322833333855,-4.467956666673323e-05,0.11734206803333212,0.09568498574999881,0.7048800319999954,-0.004060397500000026,0.003099162383333322,-0.01270608904999994,-0.28346379906666885,-0.4940485003166699,1.1941014269666712,-0.0026133968333333377,0.0032830863333333177,0.004903228833333327
24,0.7078196635983431,8.225218918187466,0.8,186.647,131.01318646754999,248.0716790586,0.0,0.0,0.0,79.85643258305,0.0,202.7472892546,230.4080359674,131.01318646754999,248.0716790586,-0.0010696719999999905,-0.00031026950000000777,-0.008038948549999998,0.0027298189999999944,0.0009518414000000242,0.01696724609999995,-0.42643917419999827,-0.19134867764999916,0.5393189471999993,-0.0025399069999999975,-0.0007502120000000061,0.0074694479999999844,-0.11869066779999968,-0.4357066770999989,0.1402377425999979,0.003910077500000003,0.0022202435000000073,-0.007639787499999994
25,0.7078196635983431,8.225218918187466,0.8333333333333334,187.8710477967,129.75246008283332,263.48485300056666,0.0,0.0,0.0,79.87586824976667,0.0,202.88910925460002,236.40539201896667,129.75246008283332,263.48485300056666,0.00031627866666667035,0.0005338008333333304,-0.0020096250000000027,0.0003167571666666659,0.013092648550000002,0.004103999183333318,0.9076379874666666,0.5017203315833333,1.207579357316666,0.002380229499999998,-0.002629823000000001,-0.0005497735000000014,0.4242063847166665,0.6883984910666665,-1.2389170563,-0.00115382933333333,0.0020029518333333374,-0.007736992666666664
26,0.7343061091705749,8.6172139955072,0.8666666666666667,188.483,126.33866263768333,296.0344448917667,0.0,0.0,0.0,79.89530491643333,0.0,203.03092925459998,236.95120438196665,126.33866263768333,296.0344448917667,0.0018397884999999863,0.0011801200000000078,-0.006904867433333236,-0.0023662296666666378,-0.0033856215499999754,-0.008166924666666749,-0.9009730526333389,-0.24606834833332558,0.650885242249993,-0.005886934283333372,0.000916933166666684,-0.0018003960000000257,0.1802530984666667,0.10117631889999804,-0.45829839063333205,0.0015402876166667077,-0.0037998124999999872,-0.002160048000000003
27,0.7343061091705749,8.6172139955072,0.9,187.05505824719998,126.39322768174999,291.36238104755,0.0,0.0,0.0,79.9147405831,0.0,203.17274925459998,233.66911773024998,126.39322768174999,291.36238104755,-0.0009496639999999904,0.001230487500000014,-0.012497825099999966,-0.009328588549999989,-0.007969589999999988,0.021267566599999985,-1.1114296303999989,0.024575437699999522,-2.2907196801500014,-0.005369474549999985,-0.011058574049999987,0.007768882049999997,0.0937871816499998,-0.03887661925000071,1.3963905468999993,-0.0015691850500000055,0.002339997,-0.00783932754999998
28,0.778991923784929,8.779221217207919,0.9333333333333333,187.45934178288334,128.28815743153334,275.1441400369,0.0,0.0,0.0,79.93417724976666,0.0,203.31456992131666,234.17200246118333,128.28815743153334,275.1441400369,0.0015363491666666694,0.008379805000000002,-0.00047386039999999276,0.00020009749999999908,0.008323273616666661,0.0032532990500000053,0.5114791629499995,-0.859492793133333,-2.0477669364166675,0.00589305655,-0.0014599190000000007,-0.00021042149999999683,0.30108477239999976,0.34863831903333276,-0.621278138549999,-0.003843226333333334,0.0005598710000000013,0.0016560368833333358
29,0.778991923784929,8.779221217207919,0.9666666666666667,187.589,130.43634436123332,267.20301542548333,0.0,0.0,0.0,79.95361391643333,0.0,203.4563902546,233.43472013035,130.43634436123332,267.20301542548333,-0.001043841949999992,-0.007867265783333327,0.003449135383333335,0.0006001739999999985,0.0007630927166666721,0.010581944600000009,0.8522091953666668,0.34099304296666666,0.1203000544500008,-0.0020897285000000022,-0.005566156166666671,0.003410368616666661,0.16949690190000027,0.4661448877666673,-1.269433647750001,-0.0005569481666666642,-0.00037948700000000474,-0.006795105933333342
30,0.7907275976717756,8.80727477295045,1.0,187.60957602875,131.96608714615,238.24476489095,0.0,0.0,0.0,79.973019843,0.0,203.59799241045,229.14012393724997,131.96608714615,238.24476489095,-0.005080023500000001,0.012637464149999984,-0.017977923099999966,0.007329493499999985,0.006398506549999986,-0.02274691964999994,0.26569112684999874,1.4272496967999975,-0.13238055345,0.008609705499999992,0.0014497869999999938,-0.01481762859999996,-0.4631319809500003,-0.6123273598999974,1.7531542759000078,-0.005429934999999998,-0.001660313000000009,0.018918811549999966
31,0.7907275976717756,8.80727477295045,1.0333333333333334,187.64386836213333,131.49527430788334,219.31417478885,0.0,0.0,0.0,79.38867424073334,0.0,199.31007710808333,222.9268344214333,131.49527430788334,219.31417478885,-0.0024697689999999676,0.002507043950000006,-0.00047396911666670915,5.3547333333363225e-05,0.003929888283333412,0.01489903643333329,-0.7543666971000015,0.7350555272000117,1.2047596082500138,0.0026066581666666657,-0.004150100500000014,0.004323045266666579,-0.3498310336999965,-0.13542101138334717,1.5409702236499427,-0.0050500690000000095,-0.006459890499999984,-0.01017673288333339
32,0.7880627119583323,8.887271148088075,1.0666666666666667,187.67816069546666,130.05736870413335,250.9456618453834,0.0,0.0,0.0,79.38558857406667,0.0,199.26923410803332,226.49942619965,130.05736870413335,250.9456618453834,0.00661359033333335,0.000376402549999961,0.01178253259999997,-0.0026128418333333015,-0.0002963301666666449,-0.007572628216666663,-0.11879393806666502,-0.7635852414333332,1.0635980242333285,0.002719729999999982,0.0036998694999999917,-0.004749664383333289,1.3016177639833284,0.38537570328333054,-3.617454768166679,-0.004763233333333327,0.006729169883333322,-0.005232600716666598
33,0.7880627119583323,8.887271148088075,1.1,187.7124529774,129.70228291335,268.33295112245,0.0,0.0,0.0,79.38250290745,0.0,199.22839077475,228.76351806355,129.70228291335,268.33295112245,0.0032093140499999044,-0.006400096500000014,0.017048477099999928,0.0010201295000000182,0.01326821459999989,-0.004448185099999747,0.8662888614999972,-0.4276674824999935,-2.2333054556499947,-0.0002097544999999657,-0.006568686549999956,-0.005268676049999955,-1.3197257386999992,0.4122481749499925,-0.8529730308999741,0.003159906999999987,-0.005248585549999942,0.010289849999999979
34,0.7827969450413548,8.880352348644465,1.1333333333333333,187.732,129.85039923785,261.06209337868336,0.0,0.0,0.0,79.37941724073333,0.0,199.1875484413667,227.44171627305,129.85039923785,261.06209337868336,0.003930749566666655,-0.0009234445500000046,0.011524036616666664,0.0012098200000000016,-0.009839554999999996,0.020635825816666675,0.23249633976666678,-0.3324872962166662,-2.5306669436333324,0.006773488833333332,0.0017601544999999988,0.00924326911666666,0.7939956262499992,0.2413409103999995,0.5223723908666682,-0.0026336283333333304,0.007400326999999997,-2.3215116666661616e-05
35,0.7827969450413548,8.880352348644465,1.1666666666666667,187.72397379625,130.4525988828,240.58430123731665,0.0,0.0,0.0,79.37633190745,0.0,199.14670510803333,225.73651242173335,130.4525988828,240.58430123731665,-0.0054558244333332995,0.010073323333333332,-0.005562279099999953,0.00025662866666666416,0.0005855915499999734,-0.0005539251999998641,-0.0009717306666648662,-0.8238571504999976,-1.7884092324666607,-0.008239012766666623,-0.0016736548333333547,0.0022599073833333054,1.0947016057166603,-0.28397009918333505,-2.2459346147833408,0.000583144833333321,0.000609650499999977,0.013815972549999998
36,0.787609167106325,8.846224593736906,1.2,187.24710007005,131.17772163505,244.81953033165,0.0,0.0,0.0,79.37324590745,0.0,199.10586177475,228.033156823,131.17772163505,244.81953033165,-0.009978675550000028,-0.0012389910500000007,-0.012779430499999965,0.007479316050000056,0.009748608550000032,0.0008518034000000162,0.1518608519500001,-0.02371969534999838,2.053196115899993,-0.0008297270000000225,-0.0023198170000000152,-0.002610177999999985,-1.2629250075499985,0.10882340995000514,-1.7809193790000126,0.005179452550000045,0.009178341100000055,-0.008348375100000052
37,0.787609167106325,8.846224593736906,1.2333333333333334,187.14999244518333,130.78132365063334,252.26263373885,0.0,0.0,0.0,79.37016024073333,0.0,199.06501944136667,228.37077341158334,130.78132365063334,252.26263373885,-0.00934977278333333,0.008760069783333328,-0.023703173549999998,-0.0008192632166666696,-0.006039930283333328,0.003466490949999996,-0.23962530406666643,-0.8237687931833331,3.66490821145,-0.0005570556666666636,-0.003400355499999997,-0.008336829166666665,-0.27793795708333424,-0.4927082381500003,2.488008409166666,-0.0038161868833333345,-0.004259686216666666,0.011242865333333331
38,0.7774757222902053,8.859366978379398,1.2666666666666666,187.38683630481665,130.43784445333333,250.26439170785,0.0,0.0,0.0,79.36707490745,0.0,199.02417610803332,228.18980058943333,130.43784445333333,250.26439170785,0.00689251421666669,0.0015138294500000268,0.012855022433333382,-0.0015299430000000089,0.00919574605000004,0.009213638333333286,-0.8075004432333406,-0.12926157218333045,0.6094574798833157,-0.002962921333333397,0.001713687833333278,0.002008786266666805,0.42715418646666814,-0.31514535319999265,0.505783670450024,-0.0040284532666668565,0.004685891933333403,-0.0073991098833333675
39,0.7774757222902053,8.859366978379398,1.3,187.5420003196,130.83246461635,256.3877648883,0.0,0.0,0.0,79.36398890745001,0.0,198.98333377470001,226.9011618737,130.83246461635,256.3877648883,0.0017202225000000312,0.004990007500000001,0.008650897950000125,0.006129720999999961,-0.0021491325499998788,-0.01908700514999986,0.09272007514999805,0.052175358899997255,2.2882586065499857,0.00746971249999996,0.007430256500000036,0.004938691049999957,-2.1363672225999935,-2.312614607599995,-2.258068124349982,-0.0029291100500000154,-0.0016299854999999978,-0.006320130500000018
40,0.8246325901354794,8.897201801017445,1.3333333333333333,187.62947008039998,130.3029208611,256.3026842864,0.0,0.0,0.0,79.36090324073334,0.0,198.9424904413667,226.52972749441665,130.3029208611,256.3026842864,0.007916797666666666,0.0037665636666666673,0.019256448600000003,-0.001370143999999999,0.00166598510000001,0.02135654094999999,0.0879501936166665,-0.46917797393333327,1.0042547780999995,-0.002446979166666664,0.010039811000000001,0.0032603374999999974,0.5780049054999992,-0.3574272874333342,-1.8405146418166656,-0.007983547333333332,0.0011668546666666652,-0.0006367113833333389
41,0.8246325901354794,8.897201801017445,1.3666666666666667,187.67,130.1660471951,255.20540688656666,0.0,0.0,0.0,79.35781790745,0.0,198.90164710803333,228.65715834661668,130.1660471951,255.20540688656666,0.00016060661666666265,-0.00228345495000003,-0.012435986550000066,0.002890064116666693,0.0011006847333334228,0.012559875766666546,0.4036407336833309,-0.39454805485000055,0.117013466516672,-0.004530019500000001,0.009253470333333342,-0.005719540000000036,0.6526385717833316,0.583944397933335,-2.105786982083316,-0.001563289216666642,0.002989644883333288,-0.006735554433333283
42,0.8262140205679316,8.92045727168454,1.4,187.66930049225,131.19611623005,243.50136374385002,0.0,0.0,0.0,79.35473190745,0.0,198.8608047747,228.1180952451,131.19611623005,243.50136374385002,-0.0026695670500000357,-0.003919997,0.021196407200000048,0.0059998210000000145,-0.0008294629999999618,-0.009689156050000071,-0.2606220911499971,-0.19275100404999843,-0.6980322514000018,0.0012300504999999957,2.1144449999988115e-05,0.004798296100000058,-0.8825382544500013,-0.3580158033499986,0.6959385769999978,-0.002890417449999966,0.0006303464999999715,-0.0007989945500000827
43,0.8262140205679316,8.92045727168454,1.4333333333333333,187.69965103765,131.22488765143333,243.06496795503332,0.0,0.0,0.0,79.35164624073333,0.0,198.81996144136667,227.04667594526668,131.22488765143333,243.06496795503332,-0.011950345349999985,0.0030598522833333278,-0.0011664546666666584,-0.0033130966166666624,-0.0045699194333333375,0.009416500383333332,-0.8861029440666667,0.25654519719999935,0.5049017613166662,-0.002726372449999997,-0.0006902699999999985,0.008773687183333321,-0.1702730326333336,0.3124681510666659,0.9404764784500002,-0.00021283976666667398,0.004213082333333335,0.007329434933333339
44,0.7990876224175736,8.898207084283513,1.4666666666666666,187.67429921028335,130.10718892875,257.9194205142833,0.0,0.0,0.0,79.34856090745,0.0,198.77911844141667,227.75089569758333,130.10718892875,257.9194205142833,0.007715451433333315,-0.0025071982833331976,0.00903986361666648,-0.0044230713333333746,0.004983567833333296,-0.0057123177166667205,0.34334409539999855,0.801357509116669,0.04854911746667617,-0.0020631407166667487,0.0011370006666666145,-0.0003493273833333343,0.9009781656166729,0.8399146624499965,-3.115236541449983,0.007626626050000059,0.0016135933333332928,0.00485967750000005
45,0.7990876224175736,8.898207084283513,1.5,187.5659999975,130.42783580935,258.18532153744997,0.0,0.0,0.0,79.34547490745,0.0,198.7382757747,228.58673149035,130.42783580935,258.18532153744997,0.009119574050000035,0.00783750915000004,0.016870583000000036,0.0037498015000000163,-0.012498740050000021,-0.0006292515500000616,1.019594487850002,0.284720086699997,-3.5096041035500107,0.007889621050000031,0.006429613050000032,-0.005140201499999983,-0.4792089895000017,-0.0034918417499955707,1.5613742880499915,-0.004299434050000046,0.006440043999999997,-0.0032102639999999783
46,0.7906850224653681,8.890934861599817,1.5333333333333334,187.56531661916665,131.03804305105,254.9999316319333,0.0,0.0,0.0,79.34238924073334,0.0,198.6974324413667,227.5396567361,131.03804305105,254.9999316319333,-0.0027999217166667025,-0.0003728795499999833,0.0016971541666665948,0.0007867421666666771,0.0003599077833334125,-0.007853997683333567,-0.2189502871166743,0.806291825183331,-2.3880265418333484,-0.007196229666666747,-0.004583245550000034,0.00622315440000016,0.44362886231667226,-0.08833394348332291,2.2937188425333193,0.005752905049999987,-0.0027134191166667716,-0.005989812499999974
47,0.7906850224653681,8.890934861599817,1.5666666666666667,187.56586550640864,131.05752985884294,245.34136621346067,0.0,0.0,0.0,79.33930387659383,0.0,198.6565890329183,226.9121536588496,131.05752985884294,245.34136621346067,0.0003164459889661087,0.0016798333750020688,-0.0060955967631714705,-0.0006403580179009053,-0.0005896859842992059,0.026155216844175568,-0.7088099606480315,0.25876391581245695,-1.6390775532609942,-0.0038231533743353684,0.0038290573862026353,-0.006143426054636097,0.7393481637248515,0.4300694714735754,-2.6842655376768874,0.0035900500025001264,0.009329944047202388,0.00496309142123774
48,0.773880512436449,8.91365324630874,1.6,187.6193504654,130.9558071742,246.5272683622,0.0,0.0,0.0,79.3362178149,0.0,198.6157455494,228.0390489466,130.9558071742,246.5272683622,0.0025792280999999777,-0.0010900440000000014,0.0184790141,0.001250448000000013,-0.0027494079999999827,0.006900758899999964,0.3962675854999993,-0.0330708320000021,-0.16577921089999886,0.007198811099999966,-0.0060483901999999826,0.018835202499999947,-0.8047473126000003,0.1628167528999996,-0.056234015799989046,-0.0023186430999999896,-0.0014586431000000186,-0.003897883199999968
49,0.773880512436449,8.91365324630874,1.6333333333333333,187.66453274656666,130.443686918,254.9823983267,0.0,0.0,0.0,79.33313214813333,0.0,198.57490221606665,227.97730800686668,130.443686918,254.9823983267,0.005501262466666593,0.005717086899999951,0.03174063446666658,0.0031162746666666846,0.007017243666666641,-0.013203487333333283,-0.249603420566664,0.20036489746666009,0.20910922276666682,-0.0067566434333333186,0.00628326833333329,-0.010327011433333259,-0.7666694915666677,-0.660493278966662,2.444088658700009,-0.0018171266666666458,0.0037247417999999206,0.007903095099999995
50,0.7782894899338544,8.925417497142575,1.6666666666666667,187.62212731243335,130.58800316636666,254.79691753756666,0.0,0.0,0.0,79.3300468149,0.0,198.53405988273332,227.72960338503333,130.58800316636666,254.79691753756666,-0.006819420433333332,0.008065332033333317,-0.003926960099999974,-0.0024029953333333364,0.017908859433333337,0.013484809033333362,-0.19827071936666707,-0.017719831433332833,0.47197205483333493,0.0004138528999999931,-0.0014863860999999967,-0.007869352433333341,0.5130326927666662,0.14796669773333287,0.8929889099666689,-0.0017863986666666687,0.004071673200000019,-0.005116772666666657
51,0.7782894899338544,8.925417497142575,1.7,187.4840003545,130.8343701404,250.852458391,0.0,0.0,0.0,79.32696081489999,0.0,198.49321654940002,227.2455009377,130.8343701404,250.852458391,0.0027485680999999877,0.010959667999999962,-0.04265231369999984,0.004579387099999982,0.006851951800000027,0.014337500199999985,0.3240246999999991,-0.4406470285999988,-0.6415796489999964,-0.006837763199999964,-0.005399213099999978,0.006008473099999984,0.9791045149999973,1.1993412094999958,-4.360454223099991,0.004229389099999982,-0.01089793919999994,0.006116670299999962
52,0.7743012936340392,8.942549944386542,1.7333333333333334,187.53252174550002,130.46332829506665,248.95121807783332,0.0,0.0,0.0,79.32387514813333,0.0,198.45237321606666,226.46016011593332,130.46332829506665,248.95121807783332,-7.644266666665214e-05,-0.009453397333333405,0.022195531733333412,-0.00397002976666669,0.008815867199999926,0.011847042666666691,-0.17183459576666854,-0.009976850899999796,1.0521460405000045,0.0007429488666666189,0.003803200100000013,0.007180299233333397,-0.720036973133341,-0.6657225854000044,2.448033245666701,-0.0014195977666666623,0.011769642533333353,-0.005286049433333315
53,0.7743012936340392,8.942549944386542,1.7666666666666666,187.58873740736666,130.91043157686667,252.86695626223332,0.0,0.0,0.0,79.3207898149,0.0,198.41153088273333,228.4342067591,130.91043157686667,252.86695626223332,0.0032141018999999917,-0.00410166120000002,0.01197027356666667,-0.012932143200000008,-0.003299264433333334,0.0008885227999999874,-0.20501643296666708,-0.7724299317666667,1.9109240260666664,-0.0018266716666666667,-0.0020124397666666685,-0.007774023333333319,0.1219726154666663,-0.5721669491333345,-0.5685414909666658,0.0054128207666666655,-0.008857269300000015,-0.001003508333333332
54,0.7803879105068745,8.946987732878597,1.8,187.6398973043,130.6308848279,253.34906353489998,0.0,0.0,0.0,79.3177038149,0.0,198.3706875494,228.34718204179998,130.6308848279,253.34906353489998,-0.0018794631000000133,-0.015234991499999942,0.027017454299999983,0.001969637000000018,-0.003888512099999957,0.011444542499999844,0.4362271549999995,-1.6663200816999961,0.819816456900001,-0.0021494619999999844,0.0040399649999999995,-0.0017290640999999443,0.6165761653999983,1.0364865234999985,-1.3945310992999973,-0.001359940000000027,0.01908701529999994,0.002840092000000003
55,0.7803879105068745,8.946987732878597,1.8333333333333333,187.4762819998,130.330271659,249.71047362733333,0.0,0.0,0.0,79.31461814813333,0.0,198.32984488283333,226.4499973333,130.330271659,249.71047362733333,-0.005016442666666677,-0.005598233366666596,0.01886659590000002,0.007992948100000003,-0.0021909766999999095,-0.02200049846666681,-0.20732492456666354,-0.5592752942999981,0.9770370741666681,-0.004323799566666616,-0.00837714313333325,0.004442022400000089,0.1012091026666661,0.6387785481999992,-0.007558966766669506,-0.0007388305333334011,-0.007433001099999955,-0.002353583566666625
56,0.7851297037137783,8.96520353416895,1.8666666666666667,187.45216770853332,130.82077442733333,252.51853546866667,0.0,0.0,0.0,79.3115328149,0.0,198.28900188273332,227.83641753060002,130.82077442733333,252.51853546866667,0.0009773282333333248,0.005548043300000007,-0.006209583999999987,-0.002112095200000007,-0.014714776466666649,-0.00018359290000000334,-0.11500814226666745,-0.3480983420999996,1.155384187566668,-0.003765631100000012,0.005350328999999989,-0.0028471662333333266,0.1438348461000003,-0.06992183023333254,1.6087464149333337,-0.004295888100000002,0.012439272433333325,-0.008595462533333341
57,0.7851297037137783,8.96520353416895,1.9,187.468,130.7008573571,252.1816732455,0.0,0.0,0.0,79.3084468149,0.0,198.24815854940002,227.55723108569998,130.7008573571,252.1816732455,0.009888213200000147,0.0011581362000001533,-0.03202367560000044,-0.003188319200000056,-0.0024508159000001797,0.025853903600000335,0.8949966761000038,-0.16235347860000088,1.3591330698000155,0.00397830220000014,-0.010797346300000054,-0.0006099250000000885,0.464344350699997,0.6108985763999957,-0.3733243006999796,0.0038591270999999896,-0.00937785719999993,-0.007289660000000028
58,0.7828807075286477,8.984259161776322,1.9333333333333333,187.46933153303334,130.28512943523333,253.3210326591667,0.0,0.0,0.0,79.30536114813333,0.0,198.20731588283334,227.2867142858,130.28512943523333,253.3210326591667,-0.0012789952999999708,-0.014105494199999987,0.004750530699999929,0.007732950333333352,0.013109058299999973,-0.018009102066666678,-0.26623118920000316,0.3357515930666684,-1.0239024098333356,0.0014214959333333967,0.0014798610000000241,0.01089978076666667,0.6788699949333328,0.6461964489999978,-2.1511897814999967,-0.00046350556666669134,0.00022439226666674458,-0.0007428613333333193
59,0.7828807075286477,8.984259161776322,1.9666666666666666,187.48709791783332,130.85000853716667,253.61335847196668,0.0,0.0,0.0,79.3022758149,0.0,198.16647288273333,228.46802170876666,130.85000853716667,253.61335847196668,0.003009607000000003,0.007056844666666657,0.019627370233333375,-0.0024375513000000123,-0.012028202300000006,0.0042765766666666505,-0.6998019914666672,0.3364680148666667,-1.970286381933334,-0.002786293099999998,0.0030711566333333513,0.0011271256666666712,-0.29010380483333326,-0.22396718280000016,1.8656214790999992,-0.0005163061000000059,0.006821034066666688,0.0049083918666666775
60,0.782445142114625,8.99431228463493,2.0,187.451,131.0181655411,251.03185869510003,0.0,0.0,0.0,79.2991403433,0.0,198.1253080439,228.2589352443,131.0181655411,251.03185869510003,0.0017612059000000346,0.019627568299999933,0.0013110549000000592,-0.004967354299999953,-0.0006620528000000303,0.009279417099999954,0.6651548803999996,-0.007395343299999205,0.4420418704999979,-0.0037192430999999785,-0.01188757019999993,-0.005378743099999964,-0.4467203708999997,-0.6766374304999955,0.35602741759999623,-0.003969238100000007,-0.011387447199999928,0.0076389460999999985
61,0.782445142114625,8.99431228463493,2.033333333333333,187.33887851763333,130.17590717583334,252.06040229400003,0.0,0.0,0.0,78.81402804383333,0.0,194.9198800706,227.52125265026666,130.17590717583334,252.06040229400003,0.0017258529666669496,0.004831094166666442,0.004512065166667075,0.005129046300000149,0.0068710419333329106,-0.010315898433333245,0.18594013563334105,0.28136850006666636,-0.26365883906666726,-0.0022505814666665238,0.007655953966666778,0.0014494725333334688,0.13788023689998857,1.0952591153666615,-1.141791648233329,-0.00042311110000013957,0.013285872200000019,-0.004540412466666395
62,0.7747439471478401,9.021342792662608,2.066666666666667,184.082,130.6694979096,251.98575649473335,0.0,0.0,0.0,78.84253537716667,0.0,195.00439007059998,228.57666123816665,130.6694979096,251.98575649473335,-0.0017164046666666493,-0.00808313683333319,-0.0006224107666665838,-0.003491534199999903,-0.003942666766666733,0.005842231766666704,-0.5907532668333336,0.09904678483333834,-1.4617669963999909,-0.00033337633333333617,-0.013931356633333268,0.004739258433333329,0.3717789683333275,0.21687897759998964,-0.9943409612333098,0.003599480999999966,-0.011760573066666596,0.00040189719999992766
63,0.7747439471478401,9.021342792662608,2.1,184.082,130.8435777801,253.6689295872,0.0,0.0,0.0,78.8710427105,0.0,195.0889000706,228.3158622265,130.8435777801,253.6689295872,0.004319603999999945,-0.009114682599999535,-0.016598312200000184,-0.00038840019999991616,0.006186523399999794,0.0035203849999999137,-0.06634564329999632,0.3713792178999953,0.6752314881000078,0.0012099099999999874,0.019205035499999724,-0.0008900210000001427,-0.7691086639999974,-0.9968901665999883,2.3904100968999673,-0.01109822419999989,0.012866778299999828,0.0006704159000001979
64,0.7717095562730947,9.039705044883249,2.1333333333333333,184.082,130.47873743213333,251.69890250613332,0.0,0.0,0.0,78.89955037706666,0.0,195.1734100706,227.80507219786668,130.47873743213333,251.69890250613332,-0.008433985566666755,0.011818164599999879,-0.01612562796666653,0.003856070433333316,-0.003145851966666614,-0.013936695900000112,-0.033071534800002245,-0.37914056726667067,0.7487181433333285,-0.005503538566666723,-0.009892751333333429,-0.009372741099999983,-0.018097862399994447,0.4233512856000057,-1.3782572813333478,0.007406611900000104,-0.010343315566666775,-0.00031160393333348226
65,0.7717095562730947,9.039705044883249,2.1666666666666665,184.082,130.5241825524,251.92752590336664,0.0,0.0,0.0,78.92805837716666,0.0,195.2579200706,227.3002829344,130.5241825524,251.92752590336664,0.0032549125333333367,-0.00045096813333332045,-0.007253043333333336,-0.0003365576666666676,0.003447684300000019,-0.0019097524333333464,0.028547716866666503,-0.5386737962000002,-0.04997147619999995,0.0021665746666666595,-0.0017326187666666833,-0.005190009,0.6817651462000003,0.928668895366668,-2.0254561034000025,-0.0009816022000000031,-0.0061121892000000145,0.002482898766666665
66,0.7730725660910593,9.03510515714197,2.2,184.082,130.63082748530002,254.40021277919996,0.0,0.0,0.0,78.9565657105,0.0,195.3424300706,227.8391903123,130.63082748530002,254.40021277919996,-0.001990005000000001,-0.013407043299999586,0.006147937199999852,-0.0016001300000000182,0.0014078931999998454,0.01900482749999942,0.07526142689999894,0.3310479963999962,-0.21985377039998572,-0.002539416100000058,0.004879086099999733,-0.011907973199999856,-0.7392131028999953,-0.9652267976999928,3.6592828851999912,-0.000969399099999916,-0.005080329000000186,-0.013805204499999611
67,0.7730725660910593,9.03510515714197,2.2333333333333334,184.082,130.79804201656668,250.73988361943333,0.0,0.0,0.0,78.98507337706667,0.0,195.4269400706,227.22625958860002,130.79804201656668,250.73988361943333,-0.0033201920000000126,0.011412288399999953,-0.005966556433333348,0.0030868979000000596,-0.0021192025333332584,0.0048427998666669345,-0.14474697283333474,0.038432276166666446,1.1933899820333371,-0.007100060000000004,0.0038680518333335107,-2.6757899999984127e-05,-0.11556546686666375,0.29046604180000724,0.402114146499974,-0.00026712913333338563,-0.002482617399999845,0.004215510499999901
68,0.7757624326401356,9.03716947713724,2.2666666666666666,184.082,130.86612330313335,250.44671715643332,0.0,0.0,0.0,79.01358137716667,0.0,195.51144973716666,227.05883644666667,130.86612330313335,250.44671715643332,-0.0012347354666666583,0.0021975632333333314,0.010711974133333368,-0.004242110200000008,-0.010156409166666693,0.019242217700000036,-0.003774007633333659,-0.09487996019999975,0.8374238691333337,0.011334873533333336,0.00426916686666668,0.008163102333333326,0.5095006162666664,0.7647729673333333,-2.7788510959333337,-0.00981522896666668,0.005238353300000014,-0.0007776252333333228
69,0.7757624326401356,9.03716947713724,2.3,184.082,130.5928626777,253.3371549472,0.0,0.0,0.0,79.0420887105,0.0,195.5959590706,228.1841587499,130.5928626777,253.3371549472,0.012625811400000098,-0.010327720200000024,-0.03840580050000018,-0.00016992100000000652,0.0009302080000000651,-0.02001922809999998,0.1819351307000027,-0.1685736218000016,-0.8777176278000064,-0.008357173300000069,-0.011067144300000154,-0.012095791400000099,0.0934292456000064,-0.3229423772999951,-0.1571541605000328,0.006378560100000036,-0.01852573450000027,-0.0045306909000000254
70,0.7717243373222118,9.031853989287129,2.3333333333333335,184.082,130.79839647506668,253.26095338256664,0.0,0.0,0.0,79.07059637706666,0.0,195.6804690706,229.01393850126667,130.79839647506668,253.26095338256664,0.0056404014666667154,-0.005716394666666649,0.011903246800000277,0.00013992799999999522,-0.0057894867666666554,-0.0010661487333331263,-0.2289720018666675,0.19040311173333496,-0.09783073046666661,0.008362934566666749,0.013302872100000057,0.007110068000000071,-0.312309915966663,-0.2503367337666601,2.2890214282666514,0.002433401333333338,0.013595253733333328,-0.003166925666666684
71,0.7717243373222118,9.031853989287129,2.3666666666666667,184.082,130.50199817393334,253.41234333326668,0.0,0.0,0.0,79.09910404373333,0.0,195.7649790706,234.05232575043334,130.50199817393334,253.41234333326668,-0.0074934998333333475,0.001692487766666668,-0.011486421166666668,0.0009531603333333347,0.0004207315666666573,0.013083723899999995,-0.7628565882000024,3.7016573419000047,3.001141124066674,0.003427485233333332,-0.011933903833333336,0.006566590666666667,0.3840614507,0.3501677599999999,-1.5360470804333337,-0.0012190878666666716,-0.015790245500000005,-0.0024564406666666688
72,0.7722649138440829,9.026106810980309,2.4,184.082,126.85312368830002,289.85664833509986,0.0,0.0,0.0,79.1276117105,0.0,195.8494890706,237.83806204580003,126.85312368830002,289.85664833509986,0.004388818100000097,0.005179422999999965,-0.012399570100000035,-0.0065678572000000945,-0.008008035199999996,0.0006731106999999086,-0.06015024250000237,-3.1601355173000636,-9.153171894200069,0.004310374999999969,0.0075289810999999195,-0.0060887491000000205,0.08541042510000078,0.3423366716000052,-0.9207669565000052,-0.0020493940999999675,0.011187429199999965,0.004669291099999976
73,0.7722649138440829,9.026106810980309,2.433333333333333,184.082,125.56946670873332,299.8678225753001,0.0,0.0,0.0,79.15611937706666,0.0,195.9339990706,233.29462540180003,125.56946670873332,299.8678225753001,-0.007269642766666671,0.005683107866666754,-0.009740579233333295,-0.0021273811333331694,-0.009153452333333313,-0.021314629966665888,-0.21191455336665632,3.298060483033363,-0.44305618446667117,-0.0024802474666664187,-0.006074511499999449,-0.005606970666666619,-0.21513571639999524,-0.09730896810000453,0.6525165825666448,-0.0003031471000001333,0.00010602773333369397,0.0045602137666667375
74,0.7728484615730622,9.01629482058388,2.466666666666667,184.48646363603333,128.64722964796667,272.9766182788667,0.0,0.0,0.0,79.18462704373333,0.0,196.0185090706,233.77718791486666,128.64722964796667,272.9766182788667,0.0005976297333333469,0.004734833400000018,-0.007115388533333348,0.006073126333333327,-0.004407356233333333,-0.015806892666666683,-0.2061377813,-0.7724408735666684,-1.091535284500001,-0.0003992564333333416,0.0024176627999999787,-0.0005771916666666706,-0.10892945036666712,0.03131309263333254,0.2930569842666677,-0.004692811766666666,0.002477903799999984,0.00314003
75,0.7728484615730622,9.01629482058388,2.5,187.97580943970001,130.452491485,267.56312240150004,0.0,0.0,0.0,79.2131347105,0.0,196.1030190706,233.7707117304,130.452491485,267.56312240150004,0.01189639040000005,-0.011459945000000004,-0.013634756600000268,0.002061316899999974,0.009296387400000133,0.003757046300000161,-0.17245359580000086,-2.5412684366000065,-0.0474305900000387,0.007948974100000086,-0.0014784520999998804,-0.00539973099999994,0.5834626425000035,0.4593075651000079,-1.766199405100013,-0.0005001780000000676,-0.006837717199999941,0.0012698890000000093
76,0.7828725312258484,9.005329764856924,2.533333333333333,187.25805200773334,131.21678224893333,258.5348048200002,0.0,0.0,0.0,79.24164237706667,0.0,196.1875290706,232.34364686580003,131.21678224893333,258.5348048200002,0.006300408233333322,0.00047704113333306604,0.01634496573333339,-0.0003635055666665358,-0.010715916433333243,-0.019965961433333235,-0.3538428066999933,-1.160818113233348,4.992750141766659,-0.0008427801000000341,-0.006719275066666884,-0.004515771200000192,0.5104133983333254,-8.720567825266473,-2.816216478866605,0.003793077866666759,-0.006715906200000172,0.0011068086666666446
77,0.7828725312258484,9.005329764856924,2.566666666666667,187.147,131.81411220716666,231.61501822569988,0.0,0.0,0.0,79.27015004373334,0.0,196.2720390706,226.57529642216664,131.81411220716666,231.61501822569988,-0.00016882986666661142,0.013612583766666662,0.01391605453333325,-0.005461999199999934,-0.0031670176666666237,0.01076301033333351,-1.4291232046000042,-0.7261644637666627,4.734116167566671,-0.0010906981333334222,0.009177515733333213,-0.010740616066666531,-6.529441978533297,-4.830494939099935,-6.400774644266605,-0.006749078866666628,0.010124664399999914,0.003873810900000054
78,0.7768740536714631,9.015541645816711,2.6,187.1470275593,130.54587705289998,229.02584717530027,0.0,0.0,0.0,79.2986577104,0.0,196.3565490706,222.86820466670005,130.54587705289998,229.02584717530027,-0.00788757129999994,-0.010286831299999976,-0.001062154700000441,0.0018189000999998463,0.004197982299999718,0.034076768399999686,-0.8542453606999839,-2.0974030415999936,3.41821524119998,-0.005600241999999894,-0.017505602499999665,0.010447978199999857,5.349518376499969,1.7242365721999937,3.7783319916999867,0.008377600299999803,-0.009948556199999938,0.0029602569999998963
79,0.7768740536714631,9.015541645816711,2.6333333333333333,187.82602167363368,130.47651100660033,257.7361244722902,0.0,0.0,0.0,79.32716561411404,0.0,196.44106076113806,228.164378586996,130.47651100660033,257.7361244722902,-0.00413377320532693,-0.001819310732203313,-0.009800106171975388,-0.0030657775388769765,-0.012332271163558197,0.0030005811123889996,0.813019515509106,-1.1774502641965456,0.9827260886211031,0.0044935028251412434,0.008209348417420862,0.005864126456322786,0.8229012793973154,1.9026441762254747,1.2468144071870344,-0.0021326363651516097,0.00262329328133069,0.0024510504691900893
80,0.7705429053688704,9.017233766043546,2.6666666666666665,187.938,129.92615444486668,273.14186667933336,0.0,0.0,0.0,79.35567389893333,0.0,196.52557160589998,229.59988061965,129.92615444486668,273.14186667933336,0.008180904766666854,0.00795486836666643,0.012499510250000375,-0.0029708737833335956,0.0017266146666665655,-0.015314829883333814,1.3388662665333373,-0.3076627779499786,0.3901077917333349,-0.011610525766666789,-0.005705845133333279,-0.007762707816666555,-1.3783207741333547,2.408186333950044,-3.1097070471333916,-0.0010639823499998947,-0.007483715849999817,0.008684802616666865
81,0.7705429053688704,9.017233766043546,2.7,187.9379826375,130.10755532615,250.97528554880003,0.0,0.0,0.0,79.3841815656,0.0,196.6100806059,227.02678412515,130.10755532615,250.97528554880003,0.005638323800000005,-0.009935184750000008,0.020434950250000018,-0.005966422450000013,-0.018141773700000044,0.05149352625000009,-0.09346419674999809,-0.5444374555000014,-0.6601817596500011,0.0015093016499999974,0.002160577999999987,0.0004870779500000076,2.162988912799998,-0.6274600097499997,1.9941699584500023,-0.006728897650000009,0.0036196006499999867,-0.010458391300000005
82,0.7738396963967489,9.001152046842208,2.7333333333333334,187.64204279583333,130.98625241141667,236.43263397678334,0.0,0.0,0.0,79.41268889908334,0.0,196.6945906059,225.42988347805,130.98625241141667,236.43263397678334,0.004623785700000032,-0.0037334940166666598,-0.022945351566666942,-0.0011242762000000526,0.03005933963333346,-0.02875468038333343,-1.2960550230666636,0.09144715828332828,-0.9303228836333444,-0.007767872533333437,-0.0025817662333334733,-0.00816022931666669,1.033129775766641,0.3638154795000115,0.6658379211333394,0.0010931066500000043,0.0015621370999998833,-0.0022267276666666277
83,0.7738396963967489,9.001152046842208,2.7666666666666666,187.85397763045,131.21812763676667,243.67513785473338,0.0,0.0,0.0,79.44119689893333,0.0,196.7791006059,227.80084831800002,131.21812763676667,243.67513785473338,-0.005831390283333294,-0.00019774568333335023,-0.007396468416666699,0.0031756926499999874,-0.0058615100499999385,-0.03246734143333321,0.8090263238666704,1.1033948057666714,-1.026753784383346,-0.0010301809999999662,-0.007729803266666507,-0.004017583200000024,-1.8862184155999882,1.2654779621666636,-1.122792244666678,-0.002111156016666728,-0.007279168733333162,-0.0054185554666666205
84,0.7828084378651283,8.999392349100049,2.8,187.85680882309998,130.6743286987,256.967282306,0.0,0.0,0.0,79.4697045656,0.0,196.86361060590002,230.31318005035,130.6743286987,256.967282306,0.00557774030000001,0.0006181343000000154,0.007502955550000033,0.00954916065,-0.008416340950000021,-0.006565938249999967,1.1773397484500012,0.322749228900001,-4.909287799949998,0.008397758300000011,0.004628250650000022,-0.001818427650000021,1.5612354997499986,-2.1262005928000027,-2.186316745650002,-0.003999146150000015,0.006007077800000032,0.0035261026000000238
85,0.7828084378651283,8.999392349100049,2.8333333333333335,187.51241960763332,130.55771970435,258.55283435185,0.0,0.0,0.0,79.49821189908333,0.0,196.9481206059,228.94662930528332,130.55771970435,258.55283435185,-0.006399805500000072,-0.015232768150000069,-0.015751833416666593,0.007826704983333276,0.0015422530999998421,-0.015951206049999656,0.4303274279666698,0.43929080525001857,-4.012994607733292,0.000500418683333341,-0.006998492949999865,0.007422221599999839,0.879381458549964,-1.652217488566697,0.6399490299000227,0.007065709299999974,-0.014511734599999885,0.0004526531000003317
86,0.7783998559414158,9.014988910113402,2.8666666666666667,187.126,130.60674633171666,250.60835147268332,0.0,0.0,0.0,79.52671923241667,0.0,197.0326306059,226.43103087886666,130.60674633171666,250.60835147268332,0.0027308445166667568,-0.002835677133333224,0.034042153816666525,-0.0023638603333333962,-0.007631710299999947,0.015600014250000247,0.5080448024166653,0.4496762334666647,-0.7844447487166806,0.004682465816666658,0.011790237766666607,0.005401804799999951,-1.1061444798666662,1.2363327861666549,0.23128226249998463,-0.0027039813500000804,0.00992101176666664,0.008232952333333318
87,0.7783998559414158,9.014988910113402,2.9,187.32578218865,130.35376757225,252.90811494455,0.0,0.0,0.0,79.55522756559999,0.0,197.1171406059,227.254563692,130.35376757225,252.90811494455,-0.006637268949999997,0.017317986300000008,0.01382727595000003,-0.0044797355000000105,-0.009916619950000021,0.03666630695000004,0.2207176880000005,0.301237034050001,0.6908168977500014,-0.009117745300000002,-0.018444377400000024,0.012296611450000012,1.0219721537499988,0.8564618413499999,-0.8941406630500021,0.009384885750000018,-0.01740423190000002,0.004167924300000017
88,0.7778283633052752,8.990456212202616,2.933333333333333,187.71970670178334,131.22673888338332,251.50262673681672,0.0,0.0,0.0,79.58373489908332,0.0,197.2016506059,229.6264221764,131.22673888338332,251.50262673681672,-0.007349757000000014,-0.006020730049999786,-0.010178482766666677,0.004756514983333323,-0.00726497224999983,0.004621161733333343,-0.14949817908333374,0.24975846636665655,0.29798301993332316,0.004087922033333183,0.007172830149999894,0.004620688683333313,-0.08972422159997251,-1.037015858116641,2.7312625042833085,-0.000235660616666725,0.0086427086499999,-0.0061425402833333795
89,0.7778283633052752,8.990456212202616,2.966666666666667,187.541,131.47985560425,246.89713380488334,0.0,0.0,0.0,79.61224223241666,0.0,197.2861606059,227.8963950679,131.47985560425,246.89713380488334,0.0008462416500000099,-0.0059782959499998884,0.009024922116666678,0.001876381666666655,0.003670156766666605,-0.013928205966666357,-0.054178011516664695,0.4695440883333251,-0.9260807125833403,0.0024239383499999973,-0.004459602000000067,0.0005622013166666066,-2.7436335209999942,-1.5619969217333227,3.117681269649987,0.005922434316666657,-0.005932266816666691,0.00014240779999997576
90,0.7799388558848932,8.996562554302614,3.0,187.55239899075,130.3841866073,249.15403581035,0.0,0.0,0.0,79.64064677910001,0.0,197.37110310945,225.8436871172,130.3841866073,249.15403581035,-0.0011593311500000055,-0.0009475603000000119,0.02168084335000006,0.003279400150000005,-0.00804903165,0.012260206500000006,0.5950121964000002,-0.8939364361,-1.9828628518500016,-0.006477150950000015,-0.002508855150000018,0.0013175768000000118,0.29614540024999814,-0.618187731400001,-3.6857575550000026,-0.001440322999999989,0.0025290336499999913,0.006036982950000017
91,0.7799388558848932,8.996562554302614,3.033333333333333,187.579,130.5334831595,253.84563533844997,0.0,0.0,0.0,78.97011827278334,0.0,200.33646847378333,227.83234673669998,130.5334831595,253.84563533844997,0.004153192149999989,-0.006198339899999808,-0.017733802016666772,0.004494172699999933,0.004387511716666501,-0.01899150691666633,-0.27967157374999163,-0.2969303855333414,-0.6639979470000021,0.003516142116666697,5.5360750000153086e-05,-0.004342805966666715,1.2840525910833405,0.05335190001666931,0.27335658769997284,-0.0023592229500001023,0.002306066616666759,-0.004476007116666705
92,0.7878757730185271,8.996086419521703,3.066666666666667,187.579,130.77224477160001,260.9022602053667,0.0,0.0,0.0,78.98055660611666,0.0,200.41580680711667,229.66051470585,130.77224477160001,260.9022602053667,-0.006055696633333349,-0.011848484466666576,-0.004348237449999886,0.0030562556666666497,0.013072008566666475,0.0007123368166667759,-0.14640832706666243,-0.07874068646666862,1.2266792871500032,-0.003858555466666621,-0.008510878766666553,0.005245621133333304,-0.318014809850001,-0.2990877080999946,1.192929123533332,0.0019503460166666947,-0.0006279529499999157,-0.002419116733333447
93,0.7878757730185271,8.996086419521703,3.1,187.55650114425,130.9056535084,251.24269006825,0.0,0.0,0.0,78.99099493945,0.0,200.49514514045,228.96842403625,130.9056535084,251.24269006825,0.005717458950000005,-0.0017365371000000287,-0.010031117349999966,0.001169628000000003,0.0005974464500000129,-0.009673456550000029,0.13544041585000005,-0.04099451604999977,0.9278910047999994,0.0037194916500000045,0.01593600410000002,-0.0014367699500000184,0.06082744130000002,0.5829192420000019,0.341993044650001,0.001590743350000002,0.005948186800000015,0.01461506225
94,0.7849758371595499,8.991390245720027,3.1333333333333333,187.44387077528333,130.78014900440002,242.72237214121665,0.0,0.0,0.0,79.00143327278333,0.0,200.57448347378332,227.1174291016667,130.78014900440002,242.72237214121665,-0.0025167076666666064,0.01078095673333347,-0.028437966900000118,-0.0021168481666666563,0.008342071599999765,-0.012593303333332993,-0.2883264524499949,-0.8392871507333254,1.144708466166669,-0.0032964826666666194,-0.0028899088166665955,0.0034084127666667956,-0.515555153633326,-0.5637892819833391,0.6949919368666514,0.000693516333333323,-0.00635938313333333,-0.003584854066666426
95,0.7849758371595499,8.991390245720027,3.1666666666666665,187.34796642593332,130.51532862946667,251.78536321534995,0.0,0.0,0.0,79.01187160611667,0.0,200.65382180711666,227.90492727993333,130.51532862946667,251.78536321534995,3.1719783333506064e-05,-0.00793444686666712,0.025456246916666498,0.002211553283333524,-0.00783024576666671,-0.006003862099999801,-0.5757139575666723,-0.7542116436833464,1.034336518533317,0.0057212062666668236,0.007147933950000114,0.010034365600000174,-0.6180579515666833,-0.3702832100833342,0.8583974044000673,-0.0037924033000000636,0.00042758343333352015,-0.00544558939999983
96,0.7835062500398635,8.993328108483524,3.2,187.49849511739998,130.7418741196,255.6608133159,0.0,0.0,0.0,79.02230993945001,0.0,200.73316014045,228.83447858665,130.7418741196,255.6608133159,-0.008957535950000019,-0.018099772000000052,0.0058726345500000115,0.0020276923000000107,0.0025690721499999993,0.006579663999999978,0.6269593029999999,0.2907995803499997,0.7672355975000013,-0.003199746500000002,-0.012446358100000015,-0.004119391649999997,0.6433289229999997,-0.08320304335000055,-0.28112536175,0.002647506450000012,-0.006008503300000012,0.013684358400000015
97,0.7835062500398635,8.993328108483524,3.2333333333333334,187.59752694063334,130.99446817585,254.30281221991666,0.0,0.0,0.0,79.03274827278334,0.0,200.81249847378334,227.7044989355,130.99446817585,254.30281221991666,0.0017683847666666135,0.0009162724833331228,-0.006022961833333359,0.0005506285500000664,0.013877102216666765,0.0015705453666664572,0.3957160326999972,-0.12569587368333945,-0.15048059281666526,0.0035371353500000466,0.008453572833333426,-0.002062950149999956,1.036353214066668,1.2074801071666745,-0.643978412233337,-0.004369338949999973,0.0074694543166666984,-0.010233585516666787
98,0.7912085592388394,8.989253045192754,3.2666666666666666,187.67906639273335,130.19202967175,249.94205183839998,0.0,0.0,0.0,79.04318660611666,0.0,200.89183680711665,226.57143772706667,130.19202967175,249.94205183839998,-0.0003935143500000209,0.003990665266666625,-0.01689686964999975,-0.004785049116666641,0.00826872221666671,0.016181871533333232,-0.6567908200333337,-0.35136358283333313,-1.04185230355,0.0002808285166666733,-0.0004273296833334156,0.00017397785000004004,-0.561970626600004,0.4332471805833289,-1.4335372134833237,0.0056123938166666556,-0.004876038150000043,-0.0026170541666666004
99,0.7912085592388394,8.989253045192754,3.3,187.5979110795,130.83410483345003,250.34583428285,0.0,0.0,0.0,79.05362493945,0.0,200.9711751403,228.44480671055,130.83410483345003,250.34583428285,-0.002990097499999999,-0.0010689771500000083,0.006548799650000018,-0.006258665650000003,0.004537548950000028,-0.004456110600000016,-0.44546849475000083,-0.21442576355000068,2.5521464889000005,0.0013699295000000006,0.0012096469999999864,-0.004488776650000002,-0.3449847292000006,-0.024878484950000293,1.7025256259000003,-0.0026285261500000037,0.005858132299999999,-0.0013076338000000112
100,0.7839157167285293,8.98360691204914,3.3333333333333335,187.43727473225,131.0861644802,255.56968513119998,0.0,0.0,0.0,79.06406327278333,0.0,201.05051247378333,229.55842521701666,131.0861644802,255.56968513119998,0.005247332533333514,0.013576760850000157,-0.019459884683333567,0.00047034568333342505,-0.00238104836666634,0.014832839333333469,0.35844480511666943,0.6626349858500067,2.265389224500003,-0.0018466178500000559,0.004048835766666502,-0.005406541350000049,0.5375698334666743,0.7507355546333443,-0.36962176606670116,0.0014101980000000179,0.002206313483333241,0.009433367650000034
101,0.7839157167285293,8.98360691204914,3.3666666666666667,187.43429973225,130.59510258201666,250.87616454825,0.0,0.0,0.0,79.07450160611667,0.0,201.12985080711667,227.6107334529,130.59510258201666,250.87616454825,0.004011977283333237,-0.001968315450000013,-0.012049086199999715,-0.00033495561666659675,-0.0020379969499999587,-0.013446419916666657,0.17903658379999832,-0.3707990248333276,-1.8370792677499967,0.0037822768166666508,-0.006887511433333258,0.0010795539833333423,0.08292438749999835,0.7014161667833315,-3.335741295749992,0.0038763951666666552,-0.0022432100666665237,-0.0021983142166668163
102,0.7892602899464691,8.99120975895471,3.4,187.43132473224998,130.73527845835,251.36433293765,0.0,0.0,0.0,79.08493993945001,0.0,201.20918914045,227.59746962555,130.73527845835,251.36433293765,-0.004670251999999998,0.0018292881499999975,-0.0019361771000000066,-0.006746050600000016,-0.0019378573000000095,0.0059072734499999975,-0.14038412795000052,0.19516381345000047,0.11917965109999878,0.0033192471500000063,0.009836344100000022,-0.0038074734500000125,-1.1104754653000006,-0.7737481394000003,2.0184666081499976,-0.005718076300000007,0.003740321500000014,0.0016158606000000093
103,0.7892602899464691,8.99120975895471,3.433333333333333,187.42834973224998,130.70842195266667,252.14883421186664,0.0,0.0,0.0,79.09537827278334,0.0,201.28852747378332,228.2998245704,130.70842195266667,252.14883421186664,-0.006109946000000002,0.008217004849999942,-0.011617745083333136,-0.004791149916666524,0.009726577166666615,0.005070068316666702,0.27529323365,-0.32009399203333155,1.327868999749997,0.0014737136999999592,-0.003888771766666718,0.004082819283333363,0.2614666856833212,0.16593261099999113,1.1343028585500363,0.0006463799833333307,-0.008696280799999984,0.004387331899999866
104,0.7805334408525368,8.994351779631074,3.466666666666667,187.42537473225,130.2824417971,254.61964417511666,0.0,0.0,0.0,79.10581660611666,0.0,201.36786580711666,228.72532600293334,130.2824417971,254.61964417511666,0.008875858150000035,3.0216250000090518e-05,0.006217042666666516,-0.0015040283500000011,0.0012592324666665664,-0.005088205699999803,-0.4822079265000043,0.4547431466499939,-0.1575255656333443,-0.00043514011666660355,0.005449081483333323,-0.005695419866666492,1.1813395503166604,1.8134427253333265,-4.093045562349985,-0.0030696844833333478,0.00793604789999992,0.007112413299999934
105,0.7805334408525368,8.994351779631074,3.5,187.42239973225,131.07155693235,252.91478856580002,0.0,0.0,0.0,79.11625493945,0.0,201.44720414045,228.8067907632,131.07155693235,252.91478856580002,-3.827479999999773e-05,0.009525847250000035,0.009796127600000008,0.009306331100000014,0.0033370569500000076,-0.005593899400000018,-0.2829921730500007,-0.0672348565999999,-1.3982645394,-0.004917544450000004,-0.007617590800000003,0.005099915500000008,-0.5976437057999997,-0.8469586647499996,2.1880921508999998,-0.0005120736999999911,-0.016855379250000014,0.0005283848000000133
106,0.7888976548092614,8.990631499833967,3.533333333333333,187.41942473225,130.94009071341668,251.13084943418332,0.0,0.0,0.0,79.12669327278334,0.0,201.52654247378334,227.99797520253333,130.94009071341668,251.13084943418332,0.005483654199999904,-0.008051393866666798,0.009706954716666591,-0.0035930659666666433,-0.0023361954833333413,-0.009485358433333103,0.26763566729999966,0.21203159904999533,-0.7947824349000074,0.004919863183333245,0.0038106238666665536,0.003697644033333257,-0.5333076568166708,-0.36098538201667785,1.7512566829666736,-0.005369816133333363,0.011523953699999772,-0.0025522711000000985
107,0.7888976548092614,8.990631499833967,3.566666666666667,187.41644973225,130.41822869325,253.31485030146666,0.0,0.0,0.0,79.13713160611667,0.0,201.60588080711665,227.10670673833334,130.41822869325,253.31485030146666,-2.3729350000070704e-05,0.006564071350000086,0.0018133745499997692,-0.001972561799999941,-0.009874599599999942,-0.010226560916666785,0.08098702989999584,-0.13004871123333364,1.1684755367666722,0.00024689968333331536,-0.0047607140166667505,-0.002907866933333273,0.5424746428500035,-0.19866028823332588,-0.8379502533333347,-0.003562624799999944,0.0014356151333331808,0.0024907420166667103
108,0.7913919890394254,8.982082045610582,3.6,187.41347473225,130.89121875745002,250.8930982286,0.0,0.0,0.0,79.14756993945001,0.0,201.68521914045002,228.318124555,130.89121875745002,250.8930982286,0.004397553450000004,-0.008306029099999999,-0.00193519324999999,0.00752781080000001,0.008877602800000004,-0.025497651450000016,-0.7567730393000004,-0.22037590780000063,0.21664640635000043,0.0048700049999999915,-0.0047595206500000205,0.010627333950000014,0.7323281771000009,0.06772297955000148,0.16829435255000014,0.0022100344999999998,-0.005839210150000023,0.007969779500000001
109,0.7913919890394254,8.982082045610582,3.6333333333333333,187.41049973225,131.23009880001666,253.51085248943332,0.0,0.0,0.0,79.15800827278333,0.0,201.76455747378333,228.8847056975,131.23009880001666,253.51085248943332,0.004273641699999963,-0.008860080999999995,0.008771197599999761,0.004527441533333269,-0.0010036271999999064,0.0024931083333331744,0.18117774066665815,-0.4841157580833235,-0.6815041763999927,0.004582761783333423,0.003701852416666771,-0.005293083149999938,-0.5619408068833263,-0.9860147737666685,0.16529212148333217,0.004120377999999978,-0.0014615317833331504,-0.003133500383333207
110,0.7907403145301259,8.985269376549013,3.6666666666666665,187.40752470248512,130.61394737098522,251.22972547889066,0.0,0.0,0.0,79.1684467105522,0.0,201.8438966008967,227.83043670623533,130.61394737098522,251.22972547889066,-0.0015374189042787053,-0.010960783855859697,0.006063427604713397,-0.0023331150390852235,-0.009113522709468464,-0.0035355047085684184,0.2396308089571212,-0.1870567613047158,1.847397892711301,-0.00543373388669452,-0.0077735273597015495,0.0020912289281131906,-0.657811519359317,-0.5624357186026139,1.504515387352726,-0.005285372001933427,-0.009742174258713331,-0.004505256896178312
111,0.7907403145301259,8.985269376549013,3.7,187.404549643,130.48274298220002,252.61611041420002,0.0,0.0,0.0,79.1788852526,0.0,201.9232365206,228.4137979406,130.48274298220002,252.61611041420002,-0.0024074305999999836,-0.002988718199999992,-0.021017516399999814,-0.00345931219999998,-0.006961531599999958,0.007849004200000115,-0.18225241519999943,-0.7208686632000013,2.2398862751999977,0.005428150399999947,0.0013488181999999661,0.014305494799999957,1.261594483599998,1.5345745527999968,-1.7947890370000013,-0.0018101099999999744,0.019801679599999816,-0.008126532599999958
112,0.7849601763208511,8.988638540988063,3.7333333333333334,187.401574643,130.74790791413332,256.6261521808,0.0,0.0,0.0,79.18932358593334,0.0,202.00257485393334,228.47485464146666,130.74790791413332,256.6261521808,0.0032531773333333265,-0.005320455133333324,0.026573219066666626,-0.0006471877999999985,-0.0014742224666666622,0.02948915346666666,0.0825373839333329,-0.7915293964666671,0.51192096446667,-0.003939369733333333,-0.006959719999999994,0.0016661326666666792,0.11535161866666865,0.20377430173333533,0.06696671653332809,0.003980068866666664,-0.013305119866666663,-0.004037306933333325
113,0.7849601763208511,8.988638540988063,3.7666666666666666,187.39859964299998,130.99193694533335,250.41231769393335,0.0,0.0,0.0,79.19976191926666,0.0,202.08191218726668,228.06312977346667,130.99193694533335,250.41231769393335,0.0021116709333332726,0.00010625266666664012,-0.003512404866666814,-0.006116712133333453,-0.0015721268666667363,0.009921965333333848,0.15865533539999876,0.07859127333333854,0.6863575745333383,0.0023351137333333886,0.011886812133333357,0.0022221504000000383,-0.6286911934666706,-0.25762266380000476,1.3843640329333322,-0.0030313099333333796,0.008326683666666711,-0.0018509064666666559
114,0.7922317814020516,8.990274006130448,3.8,187.395624643,131.077251866,249.7706837564,0.0,0.0,0.0,79.2102002526,0.0,202.1612505206,227.5245159152,131.077251866,249.7706837564,0.004879040200000078,0.011017348600000053,-0.012571727600000351,0.005559408199999966,-0.007283655200000357,0.00794084380000026,-0.14928618539999777,-0.5960683124000073,1.3954844455999904,-0.0007889762000000842,-0.011084633000000113,-0.004718894200000009,0.4046360737999885,0.7161562171999829,0.18767918220006174,0.005988300400000058,-0.015763881200000173,9.768240000019066e-05
115,0.7922317814020516,8.990274006130448,3.8333333333333335,187.392649643,130.51589712133335,252.04550219133333,0.0,0.0,0.0,79.22063858593333,0.0,202.24058885393333,227.6977450908,130.51589712133335,252.04550219133333,-0.005773422466666651,-0.0011803482666666457,0.0005808725333333528,0.004973212200000006,0.007444569866666683,0.009196108399999958,-0.026957221266667275,-0.1357650812666667,0.8648164336666695,0.010550199133333318,0.000443741333333322,-0.003596488666666668,0.7472517482000008,1.1514322065333347,-2.832944584933335,0.002210249133333334,0.009317678933333299,-0.011422647066666668
116,0.7931486641534775,8.98094025421301,3.8666666666666667,187.38967464299998,130.98187280353332,250.33631466993333,0.0,0.0,0.0,79.23107691926667,0.0,202.31992718726667,231.64753239479998,130.98187280353332,250.33631466993333,-0.005574919733333353,-0.001969685533333339,0.0005933888000000205,-0.00881388880000001,-0.002079827999999993,0.0019164646666667493,0.4132868546000002,0.40486523033333305,0.03320020726666745,-0.0023677511333333057,-0.0015953107333333085,0.00046463726666668304,-0.3472640943999997,-0.35061086633333205,2.091559869799997,-0.0040460772000000325,-0.005363733799999968,0.0026402079999999816
117,0.7931486641534775,8.98094025421301,3.9,187.386699643,129.5828873268,266.1194682320002,0.0,0.0,0.0,79.2415152526,0.0,202.3992655206,238.9056547412,129.5828873268,266.1194682320002,0.00912656659999993,0.014033213399999892,0.0020614758000000997,0.0006499020000000259,-0.006023673199999818,0.012455566799999816,-0.10686394540000053,-0.07137418140000075,0.5021215261999952,-0.00437956399999993,-0.003008070399999887,-0.0020921656000000336,-0.1896754370000001,-0.07014645859999948,1.4440081091999903,0.0014399619999999702,-0.002429659999999904,0.009919138199999976
118,0.7807550157510832,8.989351947386353,3.933333333333333,187.383724643,125.26212237486668,302.2770213464,0.0,0.0,0.0,79.25195358593334,0.0,202.47860385393332,235.6262763748,125.26212237486668,302.2770213464,-0.0009727139333333386,-0.011826078399999981,0.026499784866666647,0.00035222506666667854,0.004759081733333382,0.01752916659999991,-0.05623507866666705,-0.39174583019999953,-0.742604220599999,-0.00015505186666664537,0.002323707600000037,0.005214938999999967,0.08483314746666598,0.4867845643333322,-1.757068618066663,0.0005909682666666552,-0.0015857543999999602,0.00948416159999999
119,0.7807550157510832,8.989351947386353,3.966666666666667,187.380749643,126.60575372540002,288.2475049693997,0.0,0.0,0.0,79.26239191926666,0.0,202.55794218726666,231.8143994568,126.60575372540002,288.2475049693997,0.001194816266666808,-0.0029399479999998646,0.0013730333333330496,-0.004264163266666502,-0.007189642533333551,0.010370966466666489,-0.03909354493333657,0.24396516153332706,-0.02891260426667841,-0.011153350333333138,-0.009135645199999714,-0.0021378001333332984,0.43589357706665877,0.7181990859999845,-1.4365844340666458,0.003535996199999934,-0.010911362933332941,-0.006226105199999875
120,0.781893944998501,8.987682650537295,4.0,187.377774643,129.8764282552,261.30605630199994,0.0,0.0,0.0,79.26809765799986,0.0,202.63115245499984,231.99158960580002,129.8764282552,261.30605630199994,-0.0016557607999999355,-0.005416904599999968,0.004719192200000063,-0.007997390599999982,8.951020000007218e-05,-0.007656502599999957,-0.4620095591999971,0.5710441019999962,1.0193420763999963,0.005418786199999994,0.018032671399999846,-0.0028188961999999684,-0.7471791764000009,-0.4376748034000013,2.9506566856000025,0.0010699099999999975,0.010465242999999864,0.004255052999999886
121,0.781893944998501,8.987682650537295,4.033333333333333,187.374799643,131.90850761513332,246.8697035867335,0.0,0.0,0.0,55.6348806268,0.0,172.12737750866665,231.15913107026668,131.90850761513332,246.8697035867335,-0.0005683643333330834,-0.004727768933333216,0.026413886466666404,-0.006190705133333302,0.01738008886666655,0.013724500733332992,0.24189268886666182,-0.13329565786666567,1.029351960466651,0.0030429413333333656,-0.01323572213333322,0.002719672866666666,-0.12274748320001894,-0.3115506692666753,0.34399527720007583,-0.001579993133333279,-0.016745362133333247,-0.013472065666666717
122,0.7753756618228635,8.985777378982448,4.066666666666666,187.371824643,131.89597088633334,231.5071706013334,0.0,0.0,0.0,55.6817706268,0.0,172.33439517533333,228.44851243493335,131.89597088633334,231.5071706013334,-0.010369695999999942,0.0018589730666666415,-0.02458430680000014,-0.0009336118000000318,0.002902383399999968,-0.012095941200000005,0.2098549807333341,-0.5134636418000013,0.04065602626666327,0.0016068891333332874,0.00909050099999996,-0.00018516173333342923,0.9310910752000082,0.8553397830666823,-2.796218938066702,0.0007210164666665555,0.012234826266666818,0.006651821933333293
123,0.7753756618228635,8.985777378982448,4.1,187.368849643,130.62877650040002,239.41914571519973,0.0,0.0,0.0,55.728660627000004,0.0,172.54141184199997,227.7230496142,130.62877650040002,239.41914571519973,0.004675766800000019,-0.002767820400000097,-0.01307722660000031,-0.0020166426000002764,-0.00929395920000025,0.010851775600000266,-0.0686920434000009,-0.5399122810000043,0.9173858887999994,-0.0018979664000000852,-0.00985686459999993,-0.0007796599999999456,-0.509328874599996,-0.800666045800009,1.579065301799975,0.011066300800000223,-0.013544589000000117,-0.0002584423999999636
124,0.7753305500364149,8.98550728252917,4.133333333333334,187.365874643,129.5505626982,258.67745598540006,0.0,0.0,0.0,55.7755516268,0.0,172.74842850866665,227.98002482726667,129.5505626982,258.67745598540006,0.002109579999999972,-0.010265017000000265,0.011082255066666772,0.0065612056666665055,0.0019418107999999218,0.0035516448000001742,0.09323013540000209,-0.2836375129333335,1.4823261032000103,0.004750110866666696,0.005428880600000387,0.003641315400000153,-0.14919788526665456,0.36099170986667894,0.7398207442666203,-0.008422798200000118,0.008544175866666961,-0.00027000686666662317
125,0.7753305500364149,8.98550728252917,4.166666666666667,187.362899643,130.0184719144,265.2777926872,0.0,0.0,0.0,55.8224416268,0.0,172.95544517533335,228.72358725400002,130.0184719144,265.2777926872,-0.0032244298000001998,-0.0030624614000000646,-0.007222888866666977,0.002032696866666531,0.003577513133333498,-0.020963040333333433,0.16383449686665255,-0.1294712865333097,0.5600056273999652,-0.0038781476000004393,0.001107558133332666,-0.0039212189333337364,0.6658140407999958,0.7440359612666576,-1.8207916815999579,0.004348597066666796,-0.004250548466667208,0.0014031648666665963
126,0.784732979226419,8.989847173061435,4.2,187.359924643,130.1706692462,260.45930054799965,0.0,0.0,0.0,55.869331627,0.0,173.16246184200003,229.57860144459994,130.1706692462,260.45930054799965,-0.0017794521999997838,-0.000977428599999501,0.00770335339999977,0.00981477299999955,-0.004278742200000104,0.008595147000000159,-0.4352890083999919,0.46870525939997937,-1.0500633672000028,-0.004879212199999611,-0.006847402599999357,0.010984467199999926,0.023768980399990074,-0.17938918580001567,0.3222910454000169,-0.003289096200000153,-0.0035503339999996275,-0.019668796199998992
127,0.784732979226419,8.989847173061435,4.233333333333333,187.356949643,130.4827077226,243.45713198626657,0.0,0.0,0.0,55.9162226268,0.0,173.36947850866665,227.4443768567333,130.4827077226,243.45713198626657,-0.0014815645333334801,0.0025770449333330486,0.008464697000000177,-0.0005185943333332194,-0.004942753066666607,0.025230936266666882,0.1493653998000058,-0.2589220559333331,-0.03869731306664481,9.164453333315725e-05,0.0074577309333331634,-0.0016606602666668635,-0.4023193120000014,-0.4150771572666603,1.6611503933333478,-0.00469577839999992,0.0016178863333331725,0.004852887333333108
128,0.7834216800815739,8.977326317501252,4.266666666666667,187.353974643,131.04619680866665,238.6728593054,0.0,0.0,0.0,55.9631126268,0.0,173.57649517533332,227.7268095956,131.04619680866665,238.6728593054,0.0036439288000000175,-0.0012602094666666376,-0.005785585733333324,0.007857822133333345,0.005262238866666662,-0.0012882760666666129,0.13380712466666686,-0.38399249346666775,0.6192163491333326,-0.006130983933333353,-0.010801690933333361,0.005737536133333341,0.1603726763333329,0.47114000246666604,-0.43070584186666266,0.005570325999999989,-0.005021737400000044,-0.006485236733333367
129,0.7834216800815739,8.977326317501252,4.3,187.3510009998,130.7926914538,245.31916492019985,0.0,0.0,0.0,56.010002626799995,0.0,173.783512842,228.08641580839998,130.7926914538,245.31916492019985,0.00880359940000028,0.012771723600000187,-0.005366274800000389,-0.0025998639999999292,-0.012223845200000178,-0.010380146000000234,-0.11531693660000074,0.3824189462000016,-0.29426052559998794,0.002639536000000038,0.010494831000000262,-0.0018678424000000953,0.48007902440000827,0.8678599526000196,-1.8348553986000493,0.0011721315999999892,0.006869230200000146,0.0015613117999999744
130,0.7817309507382788,8.983083579604454,4.333333333333333,187.56802058739999,130.40173471646668,260.8032849982665,0.0,0.0,0.0,56.05689329366667,0.0,173.99052950866667,229.350832611,130.40173471646668,260.8032849982665,-0.00031163540000019377,0.00669759119999987,0.010017862933333538,-0.006439522866666678,-0.0009838596000000116,0.014310125999999741,-0.03245907173333426,0.20490215993333524,-0.7546744042000066,0.0016670706666666335,-0.008375908399999925,0.015727208066666373,-0.43389988966665644,-0.9335790436666516,2.470797189933301,-0.0006567457999999385,-0.005066259533333258,0.007614014466666557
131,0.7817309507382788,8.983083579604454,4.366666666666666,187.44570245586667,130.10418187506667,260.97070075740004,0.0,0.0,0.0,56.1037836268,0.0,174.19754617533331,228.49111094860004,130.10418187506667,260.97070075740004,0.002869191066666788,-0.002576795666666821,-0.00628390579999976,0.000543019333333277,-0.005558040066666471,-0.009261023466667132,0.21118939606666734,-0.21022309566666308,-0.2084664286000325,0.0003859337333334484,0.0022824103999999662,0.003687297133333501,-0.07403159180000898,0.263666609199978,0.5993803536667154,0.0037292435333333407,-7.473726666690824e-05,0.00656254440000012
132,0.7872103808476822,8.977090457436816,4.4,187.4650169966,129.5581314348,255.42576943699976,0.0,0.0,0.0,56.15067362680001,0.0,174.40456284200002,227.52663990500002,129.5581314348,255.42576943699976,0.011036628599999949,-0.010283955199999573,0.011030651999999532,0.0027781863999997466,0.003126026800000004,-0.012925317000000046,-0.041930123999999735,-0.058624755199998706,-0.01714875719999158,-0.0022200540000000078,-0.017772731399999683,0.00984306539999945,0.895595632999998,1.4006619187999894,-3.7423531783999526,0.004986988599999579,-0.005928108400000155,-0.0006408418000002574
133,0.7872103808476822,8.977090457436816,4.433333333333334,187.473320008,130.51311864193335,243.90423197293327,0.0,0.0,0.0,56.1975636268,0.0,174.61157950866667,228.54754471233335,130.51311864193335,243.90423197293327,0.002132553066666528,0.0004116427999999103,-0.0008952238666665724,-0.005842533066666658,0.00927380360000012,-0.009995979533333244,-0.09258933913333452,-0.04351933000000061,-0.3669468936666795,-0.0016764226666666506,0.0031568758000001893,-0.002361094533333187,0.006181795599983886,-0.2409169278666916,0.7866676537333892,-0.003835130999999877,0.0004979223333335687,-0.01190261620000004
134,0.7824017928554667,8.981541149856753,4.466666666666667,187.49267866306667,131.79258452386668,242.58733254986666,0.0,0.0,0.0,56.2444546268,0.0,174.8185961753333,229.3047952116,131.79258452386668,242.58733254986666,0.001787018133333353,-0.0015938188000000257,0.002837985600000049,-0.0019576491333333306,-0.008599861999999977,0.011311812933333354,0.14275906606666666,0.21907416393333368,-0.5258437612000031,0.0012249457333333449,-0.004253677799999978,-0.018196262666666647,-0.8163429532000007,-1.2054178885333355,3.2425721921333386,0.003226370199999997,0.001678891066666681,-0.008674310266666662
135,0.7824017928554667,8.981541149856753,4.5,187.5519890024,130.4754021944,252.81566450419993,0.0,0.0,0.0,56.2913446268,0.0,175.025612842,228.460458713,130.4754021944,252.81566450419993,-0.004698328400000138,-0.01336269160000019,0.019321425800000045,0.002505283000000306,0.011017214600000559,-0.004173015399999588,0.24987317020000444,0.05551655820000875,0.1841736057999913,0.0017405477999998728,-0.0067183384000002195,-0.000971185800000396,0.2658507201999906,0.9723141265999968,-1.8801379419999869,-0.003907526600000039,-0.010445880800000256,-0.003230641800000112
136,0.7846128376772867,8.979422855186613,4.533333333333333,187.49533966286666,129.63627856966667,256.70171947420005,0.0,0.0,0.0,56.3382346268,0.0,175.23263017553333,227.16018415953334,129.63627856966667,256.70171947420005,0.0026456964000000248,-0.001740975400000002,0.013330064000000077,-0.0003772918000003872,-0.0011057961333338709,-0.009212992200000495,-0.09080680233333158,-0.20065191126667348,0.1955214071333461,0.0034788674666668146,0.009609239733333259,0.005623760200000431,0.5989182293333393,0.6902420765333451,-1.354501564800033,6.797533333295072e-06,0.001581930800000088,0.008187054666666553
137,0.7846128376772867,8.979422855186613,4.566666666666666,187.57433413273333,130.3736087842,258.4198867448667,0.0,0.0,0.0,56.38512496033333,0.0,175.43964717533333,228.6180068285333,130.3736087842,258.4198867448667,0.002534778800000183,0.0052710614666667994,-0.014741375933333165,0.0031265536666664293,0.004275636733333227,-0.011980583466666757,-0.041051226600003515,-0.017823315733342615,-0.3312397934000201,-0.005169513533333318,-0.004880273466666699,-0.010412164399999986,-0.44060403553332783,-0.7319217529333336,2.2943848089333363,0.0023313379333334975,-0.0031315239333334823,0.0034624008666668533
138,0.7978351232939076,8.98026528711955,4.6,187.5230237952,131.1801251608,254.82975719340013,0.0,0.0,0.0,56.432015626799995,0.0,175.64666384199998,229.95647578400002,131.1801251608,254.82975719340013,-0.0038300719999999943,-0.008605978800000165,0.015369480200000207,-0.006561679800000355,-0.005633915200000253,-0.02909148580000029,0.26982707120000304,-0.2020344080000054,0.2951118719999801,0.003967830400000014,0.00707580880000018,0.011864797000000017,-0.24704097100000724,-0.3141351374000142,0.5138634750000206,0.0014684644000000442,0.01741408320000024,-0.013035307000000221
139,0.7978351232939076,8.98026528711955,4.633333333333334,187.51866366906668,131.19086915606667,242.22769848593322,0.0,0.0,0.0,56.4789056268,0.0,175.85368050866666,228.44719028066663,131.19086915606667,242.22769848593322,0.002097218933333456,0.008406738666666804,0.016591811066666937,-0.004209438266667049,0.007922440799999963,-0.016074698133333423,0.15646536720000143,-0.2332997156000071,0.9906593083333232,0.001620216866666637,-0.0051663864000000255,0.00728293019999993,0.4001207794666708,0.6178066677333346,-1.2540421122000103,0.005664394733333468,-0.0019357635333334265,0.0027356924000000453
140,0.7887351894006542,8.970259023368612,4.666666666666667,187.59166480020002,130.54089534379997,246.0952731598669,0.0,0.0,0.0,56.52579596033333,0.0,176.06069717533336,227.27396310680004,130.54089534379997,246.0952731598669,0.0037725588666665116,0.004440703466666114,0.003444633266666942,0.005899050066666441,0.01076404826666686,0.004995182733333173,-0.006391470133339919,-0.22998164866666093,-0.2669301322666925,0.0015431853333333126,-0.0011308774666661378,-0.00986042099999992,0.28813062239998055,0.14798121466665154,-0.3966622757332736,0.0018081860666667392,0.0023040958000002925,-0.004347864133333128
141,0.7887351894006542,8.970259023368612,4.7,187.5100295941797,130.11060366908347,256.03573143282176,0.0,0.0,0.0,56.57268662708136,0.0,176.26771384324215,228.87899175488775,130.11060366908347,256.03573143282176,-0.007145442872143249,0.004343647232361149,-0.03246292924646133,0.006727160508025144,-0.0032725094254707856,-0.0013118897444876283,-0.09226163058152287,-0.16344366578328073,-0.4468359810990211,0.01243435906795303,-0.0013582144607232058,0.010793193259662591,-0.6988901882094004,-1.0380766739836718,2.7613189626980903,-0.004537558577928835,-0.005437894444722361,0.0024767246362313537
142,0.7818787430973089,8.974087865706792,4.733333333333333,187.54800149925,130.93742457441667,258.3249193274167,0.0,0.0,0.0,56.6195780335,0.0,176.47473671916666,229.24188323758332,130.93742457441667,258.3249193274167,0.0052922040833333385,-0.002336888416666811,0.002053689500000012,-0.0019491388333333407,0.0019634220000001746,0.014465662583332903,0.14075820899999983,0.033721519916668136,0.807725448916666,0.0007175564999999789,-0.0030753680000000618,-0.0069263829999999475,0.26400938899999143,0.5691352639166577,-0.6331311609166408,-0.00028356583333336233,-0.006102239666666721,-0.005144052583333458
143,0.7818787430973089,8.974087865706792,4.766666666666667,187.57566600024998,130.9504758189167,250.0387754721667,0.0,0.0,0.0,56.6664680335,0.0,176.68175338583333,227.29243285325,130.9504758189167,250.0387754721667,-0.004283479583333404,0.004006827916666812,0.007676490416666484,0.0038626769166666664,-0.006258051999999922,-0.0009373995000000607,-0.00829563366666614,0.05961923491666494,0.17399878700000776,0.003170247499999991,0.004916817916666774,0.010589759833333354,0.6413987310833416,0.8454611425833429,-2.4126216991666967,-0.003905982750000001,0.0017233960000000983,0.0057936258333332845
144,0.7779692286271711,8.980535816598717,4.8,187.52800599825,130.34215613275,250.09789210924998,0.0,0.0,0.0,56.7133590335,0.0,176.8887710525,226.9933674595,130.34215613275,250.09789210924998,0.0032518745000002696,-0.017290332499999873,0.015281564500000358,-0.00751356900000013,-0.007680127500000034,-0.012981534500000167,0.07564010700000086,-0.3687228522500035,-0.5364770075000013,0.005447810500000083,-0.01123059975000028,-0.013035288749999988,-0.9981168287500032,-1.5874065712500074,3.4984223325000032,-0.010625316000000102,-0.005508822750000045,-0.005216048500000036
145,0.7779692286271711,8.980535816598717,4.833333333333333,187.54467424525,130.64073062808333,253.9690313963333,0.0,0.0,0.0,56.7602490335,0.0,177.09578771916665,228.60889206324998,130.64073062808333,253.9690313963333,0.0022026215833329463,-0.014356904750000229,-0.005648034583333572,0.0009483620833334082,0.0007168397499999297,-0.0012089476666665797,-0.07193133383333253,0.14269957624999796,-0.06046401800000473,-0.004416415499999984,0.009946511666666786,-0.008876008000000076,0.010014396166657114,0.03153558241665477,0.6048454049167029,0.007343378916666563,0.006174281416666568,0.0005297274999999724
146,0.7795315170403683,8.978986257843644,4.866666666666666,187.577654504,130.52215568325002,254.24333928758335,0.0,0.0,0.0,56.8071390335,0.0,177.30280438583333,228.2286446726667,130.52215568325002,254.24333928758335,0.005443138333333416,0.009524631166666781,-0.007378034499999886,0.0021910464166666143,0.0063284759166665604,0.0033482771666666815,0.09900207816666699,0.026378994499999395,0.3534089663333468,0.00568089408333335,-0.005881846583333314,-0.005105321333333409,0.5394289161666713,1.1349410025833366,-2.8699147005000145,0.00445271941666674,-0.0020760177499999613,0.0025164502500000206
147,0.7795315170403683,8.978986257843644,4.9,187.520012747,130.69750015850002,253.1061467027499,0.0,0.0,0.0,56.85402903375,0.0,177.5098210525,227.58565721225003,130.69750015850002,253.1061467027499,-0.000730637250000089,-0.007860744749998986,-0.015966158499999463,-0.011002869249999563,-0.0119911347499996,0.031119919749998174,-0.03588794825000209,0.13196544599999727,-0.48341167125002177,0.0011294949999997898,0.00425692574999999,-0.0018699525000001331,-0.12482642150000789,-0.07214898700001957,0.5951006327500652,0.0013490227499998635,0.0026766382499998093,0.0037389377499999913
148,0.7827460329385758,8.990273139573901,4.933333333333334,187.56033300025,130.77899506441668,249.60875808633332,0.0,0.0,0.0,56.9009200335,0.0,177.71683771916665,227.5891469535833,130.77899506441668,249.60875808633332,-0.005306426666666728,0.005002279083332846,0.009133650250000295,0.007953412750000196,0.00245612050000009,-0.0008863897499993868,-0.05214301833333202,-0.0006113850000016435,-0.33782906599997675,-0.00223600549999992,-0.001360661166666827,0.006941731000000381,-0.38371646800000103,-0.808489841666672,2.5736771762500035,0.006008211500000258,-9.599799999991925e-05,0.0013031802499999337
149,0.7827460329385758,8.990273139573901,4.966666666666667,187.57733491616668,130.1882354745,253.61270715983338,0.0,0.0,0.0,56.9478100335,0.0,177.92385438583332,228.35973748100002,130.1882354745,253.61270715983338,0.00033756433333329526,-0.00839238441666666,-0.009579562333333338,-0.006135643999999971,0.004442604416666644,0.006857773083333343,0.006435582583333531,0.010301718166666217,0.36982466991666224,0.0017679320000000415,0.0003737083333333626,-0.007250958916666609,0.3788271755000023,0.5103646397500048,-1.0219345154166797,0.0003870216666666316,-0.0009354838333333153,0.002432425499999988
150,0.783141918807928,8.99833940410474,5.0,187.48603999025,130.41664413625,255.37745362900003,0.0,0.0,0.0,57.00073256899977,0.0,178.1334217204999,229.706924529,130.41664413625,255.37745362900003,-0.005951322249999951,-0.007215268750000179,0.0204376480000002,0.002466191000000106,0.0027501049999999957,0.009756186000000144,-8.451149999994281e-05,0.1839549832500019,0.3022528320000079,0.00849498625000019,0.004748193000000068,0.005899505249999981,0.357253025000006,0.42913669625000705,-1.747271254500025,-0.003716993250000114,-0.002519127749999995,-0.0015203324999999495
151,0.783141918807928,8.99833940410474,5.033333333333333,187.57733191791667,131.28059985075,249.3524226579167,0.0,0.0,0.0,81.15334780866667,0.0,188.19989868583335,229.08280625225,131.28059985075,249.3524226579167,-0.0033120285000001123,-0.00659385949999974,0.019447318416666377,-0.0015282865000001023,-0.004971051749999883,0.013630503083333061,-0.07303207924999905,0.061989925166665565,-0.050409477083340315,-0.0049571934166667605,-0.003159588833333324,0.005786533583333364,-0.4950725220833302,-0.6470094558333286,2.2157742554166484,0.0019746262500000902,-0.0014367360833333561,-0.0027688038333333912
152,0.788242977218033,8.992981865233105,5.066666666666666,187.42292236058333,130.32639327125,251.34864214674997,0.0,0.0,0.0,81.15429580891667,0.0,187.55558101916668,227.89674841541668,130.32639327125,251.34864214674997,0.0037764777499999817,0.011470821416666735,0.0015696923333331303,-0.000641394083333407,0.0064439160000000035,-0.007689597333333285,0.13714643474999824,-0.12026215424999985,0.2545115755833299,0.002136447749999983,-0.0020184184166666006,-0.0020002812500001035,-0.05538320425000709,0.04354398974999152,0.11324992916668863,-0.004222729416666664,-0.0013371405833333028,0.007633245833333564
153,0.788242977218033,8.992981865233105,5.1,183.44987278175,129.91427003675,255.10126318825002,0.0,0.0,0.0,81.15524414225,0.0,186.9112643525,228.60891142949998,129.91427003675,255.10126318825002,-0.008365461250000058,-0.005622841750000157,-0.00415156450000013,-0.006126933250000002,-0.0004068607500000431,0.008044948750000003,0.04030632349998359,-0.06245190774991572,0.47066936175001917,-0.0072563210000000265,-0.0028898700000000426,0.00763794300000004,0.6014654325000037,1.079307136500006,-1.9798860330000096,-0.0054572332500001045,-0.0005407047500000112,0.002028642749999938
154,0.7764475214786444,8.995992320804476,5.133333333333334,185.7919862905001,131.02680480566667,253.21450233791666,0.0,0.0,0.0,81.15619180866666,0.0,186.26694768583332,229.53457436758333,131.02680480566667,253.21450233791666,-0.005324500083333426,0.005287856499999828,0.003941550416666496,-0.005733285833333329,0.002096230499999938,-0.008081968500000484,0.0339256956666143,-1.9326777952497878,2.0729264370834426,-0.0017399499999999155,0.0029434927500000393,-0.00311077808333353,-0.31319544183334935,-0.34915582550002416,1.2748158422500677,0.0037022859999999427,0.000186496666666653,0.01268619916666679
155,0.7764475214786444,8.995992320804476,5.166666666666667,186.963,130.8785801925,251.44398629758334,0.0,0.0,0.0,81.15713980891667,0.0,185.62263001916665,228.48527092641666,130.8785801925,251.44398629758334,0.005255050083333263,0.0056418492500000614,0.008910408916666553,-0.005671671583333298,-0.0031463529166665966,0.008186007749999915,0.6394817119166752,2.1978646639166204,1.5547874033332802,0.004302421916666662,-0.005904978833333326,-0.0038622894166666375,-0.25713249674999494,-0.5011386171666614,1.2942498171666492,-0.0028377182499999725,0.0036356563333333185,-0.003804834916666692
156,0.7811776543497899,8.991608218365627,5.2,186.963,130.35039447375001,251.5791128765,0.0,0.0,0.0,81.15808814225001,0.0,184.9783133525,228.80702329925,130.35039447375001,251.5791128765,-0.006177843000000043,-0.007531044750000149,0.00568277925000016,-0.007966403500000059,0.0076775555000000925,0.012872132000000147,0.7357409222499948,-1.986380222750023,-4.72426267225004,0.004318245500000067,0.003268102999999996,-0.013592636750000164,0.5345109022500045,0.7015650787500027,-2.3334941415000126,0.017341929500000155,-0.005425431250000097,0.017049077750000186
157,0.7811776543497899,8.991608218365627,5.233333333333333,186.963,130.38950879958333,253.932699415,0.0,0.0,0.0,81.15903580866667,0.0,184.33399601891668,228.88324165350002,130.38950879958333,253.932699415,0.002050349999999949,-0.0004192632499998763,-0.007071787333333392,0.0018399494166666179,-0.0014124096666666764,-0.011099854416666546,0.6821501550000085,-0.6926778101666508,-1.2005721177499902,-0.0007926190833333607,0.005366632249999976,-0.0021355793333332476,-0.06125512683333163,0.11838603858333757,0.3171041287499814,-0.004165960499999926,0.002928947666666694,0.001269130166666611
158,0.774213774524469,8.992780578287693,5.266666666666667,186.963,130.43430327708333,254.86472450583338,0.0,0.0,0.0,81.15998380891668,0.0,183.68967901916668,228.28117349458333,130.43430327708333,254.86472450583338,-0.011955587583333399,0.004747171833333377,-0.002011708000000087,-0.0036968891666668852,-0.002197054166666652,-0.01348217816666657,0.12148764933333162,1.5447879955833492,-1.5348274657499914,0.0025150350833332315,0.002243683333333358,-0.011637654333333396,-0.23088402725000118,-0.48993342208333446,1.1374637458333328,-0.00117904608333342,0.00023303583333334458,-0.0007432570833334502
159,0.774213774524469,8.992780578287693,5.3,187.1142858215,131.08476488625,250.51848845325003,0.0,0.0,0.0,81.16093214225,0.0,183.04536235225,228.907027748,131.08476488625,250.51848845325003,0.008234888750000042,0.015343754000000084,-0.01739550125000032,-0.0011963585000000243,0.004657135750000032,-0.007256743250000237,0.2381347215000188,1.6135616722500024,-2.1316940742500146,0.002991414750000022,0.0013704074999999845,0.013603539000000057,8.997474467000043,3.7015838417500118,4.178589739999991,0.00676763300000009,0.0017795174999999804,-0.005485823500000044
160,0.7838074057988251,8.981036382857496,5.333333333333333,187.36642848791666,130.8500763741667,249.20367147466663,0.0,0.0,0.0,81.16187980866667,0.0,182.40104468583334,228.8191544695,130.8500763741667,249.20367147466663,0.0034101905833333387,-0.0026000261666665383,-0.012639290583332918,-0.005524250666666569,-0.00889411758333319,0.010720693083333434,-1.4849216179166702,1.557227483416664,-0.49759547625000167,0.002463679499999974,-0.002820848666666584,-0.002214072583333191,-0.056406345166601035,5.30059735574996,7.037808076916639,-0.006233325249999949,0.0008025246666667099,0.005514026416666578
161,0.7838074057988251,8.981036382857496,5.366666666666666,187.61857148816668,130.17022658041668,255.3808659700833,0.0,0.0,0.0,81.16282780891667,0.0,181.75672801916667,229.35221604883333,130.17022658041668,255.3808659700833,-0.0003836735000000884,-0.005805783999999895,0.015589997499999963,0.0004151211666668011,0.0009072580833334879,-0.008262311750000063,0.2004171214166483,-0.0993188606666636,-0.9403733468333146,-0.001089288583333335,-0.0035885032500000947,-0.005921007666666768,-3.274153024416698,-0.4876265966666279,-4.056685438833341,0.0010285784166665186,-0.00011577525000004652,-0.0029659915000000764
162,0.7815834226538527,8.979295265298788,5.4,187.8707138215,130.57086901425004,256.19061369924987,0.0,0.0,0.0,81.16377614225,0.0,181.11241135224998,229.45963925999996,130.57086901425004,256.19061369924987,-0.0011689752500001363,0.00010716825000002352,0.003332561999999799,0.0020552462499997546,0.00723199449999958,0.011995865999999982,1.2900875462499644,1.4705010405000196,-1.7329356339999398,0.007956983249999858,0.005456655749999673,-0.0008955112499995124,3.160113649499968,-0.7210656917500484,-4.686336492499952,0.0017433167500000442,0.005107955499999854,0.0062593027500000425
163,0.7815834226538527,8.979295265298788,5.433333333333334,188.02198734283334,130.88521406391666,251.63568735808332,0.0,0.0,0.0,81.16472380866666,0.0,180.46809368583334,228.86432994716668,130.88521406391666,251.63568735808332,-0.005469816916666678,0.0022798955833333787,-0.018688099000000492,-0.0032460249166666147,0.0012052462500001812,0.006206030499999841,-0.08424357308334396,0.4928612596666202,-0.8185788895000244,-0.0005900130833334685,-0.0004720415833332288,0.019425721083333524,-0.7335881133334232,-1.5732950868333173,-0.02880535508323412,-0.00811150233333367,-0.003516667250000134,0.008809835583333373
164,0.779786579102506,8.988499177145854,5.466666666666667,187.75119805075,130.76798284908332,252.30782752225,0.0,0.0,0.0,81.16567180891667,0.0,179.82377701916667,229.46275804425,130.76798284908332,252.30782752225,-0.006213114416666655,-0.0020942884999999634,-0.008754048500000023,-0.0013080320000000219,-0.0017903751666666174,-0.009743186916666549,0.3033248915833403,-0.5510551706666784,-0.4788931542500036,-0.006470375166666618,0.003022526916666664,-0.004296909166666629,-1.137835799583328,2.3338469030833338,-0.0006419263333347358,0.012896549166666622,0.002595800250000017,-0.003684871333333345
165,0.779786579102506,8.988499177145854,5.5,187.010051987,130.5320494305,253.104473369,0.0,0.0,0.0,81.16662014225,0.0,179.1794593525,229.55089209649998,130.5320494305,253.104473369,-0.0021109272500000028,0.008105696250000126,-0.0039003875000000613,-0.0007396050000000528,-0.007125971000000038,0.006855436250000135,0.45742049975001464,1.1742982237500175,2.082841352750009,0.005989907499999928,-0.0072674732499999825,-0.010121647250000204,1.3573257952500053,0.14793961125000385,3.8337749309999913,-0.021851897000000002,-0.003920249999999914,0.007115046250000074
166,0.7793539234850186,8.989603314326814,5.533333333333333,187.01,130.43723145541665,253.97376832524998,0.0,0.0,0.0,81.16756780866666,0.0,178.53514268583334,228.33345116483335,130.43723145541665,253.97376832524998,-0.00398681224999997,-0.0022549312500000406,-0.016732560833333056,-0.0004676559166665907,0.001816809749999931,-0.0005847800833334305,-0.8747673283333364,-1.0793680754999941,-0.7110105544999739,0.008325349333333409,-0.0017392182500001055,0.010581069833333344,-0.5187770934999809,-0.7342520430833266,2.3574290606667008,0.014850937333332814,-0.0019445531666668226,0.0028479959166666166
167,0.7793539234850186,8.989603314326814,5.566666666666666,187.01,130.61997409241667,254.35608216916665,0.0,0.0,0.0,81.16851580891667,0.0,177.89082568558334,227.84184614699998,130.61997409241667,254.35608216916665,-0.005571677833333548,-0.0013726906666668166,0.0019544097500000224,-0.0015213153333332962,-0.0033738847499999282,0.005557915750000078,-0.4441769267500036,-0.7840346034166867,-1.3988804262500156,-0.004385635249999976,0.005402556916666671,-0.0005686873333331684,-1.379961886166672,0.8310923805000074,0.8950014893333442,0.01659973983333362,0.00658913858333334,-0.0014685321666666718
168,0.7749688403922619,8.97916922665513,5.6,187.41183254274998,130.88751050475,254.15876866475003,0.0,0.0,0.0,81.16946414225,0.0,177.2465083525,229.37017621525,130.88751050475,254.15876866475003,0.004728862750000081,-0.003956453499999983,0.025557878250000193,0.005255896000000042,0.0024361660000000317,-0.016148245499999915,1.108341260750003,-0.8314270657500156,1.7218567999999979,-0.002968967750000077,0.005769445250000021,0.004715163749999993,1.4250277142499879,-1.6531669012500168,-1.5569854440000086,-0.03031610375000026,-0.01811876300000016,-0.0037279305000000405
169,0.7749688403922619,8.97916922665513,5.633333333333334,187.13335190291667,130.6060092265,251.36194022691666,0.0,0.0,0.0,81.17041180866667,0.0,176.60219168583333,228.47198600741666,130.6060092265,251.36194022691666,-0.006072845250000068,-0.0019765779999998847,-0.0012216940833335238,-0.00023340275000003252,0.006387731500000221,-0.0118410192499996,-0.10087675075002711,0.38148965699998705,1.9062014574999986,0.0069126577500000525,0.0011701074999999283,0.0043496174999999694,1.178605183083288,-0.5030252609166851,-0.09925167924998302,0.013215313583333815,0.0018821460000000925,0.002216291666666717
170,0.7904812483802743,8.974640581073118,5.666666666666667,187.119,130.3865692025,251.18099604091668,0.0,0.0,0.0,81.17135980891668,0.0,175.95787468558333,228.75041154341667,130.3865692025,251.18099604091668,0.000385083833333328,0.001417776833333279,0.0024360200833332627,-0.0007769680833333469,-0.0010539933333332408,0.010158311999999942,-1.0269696651666647,-0.5364834499166691,1.2153225738333315,-0.011566480249999924,0.00027623666666665744,0.0013865554166667283,-0.7050089880833441,1.5333694169166523,0.4758962997500038,0.010521258916666486,-0.003234796166666734,0.010846526499999946
171,0.7904812483802743,8.974640581073118,5.7,187.11913046575,130.9418208635,254.2007902965,0.0,0.0,0.0,81.17230814225,0.0,175.31355735250003,228.91927806375,130.9418208635,254.2007902965,0.0017994427499999832,-0.006998245500000067,0.0074537365000000855,0.005084841250000119,-0.0019067057500000112,0.0036023442499999113,0.8105595147499994,-1.1849601737500177,0.5190227452499782,0.02363719325000022,-0.00658640100000006,0.00720179699999997,-1.6810301790000182,-1.4685662742500054,5.05665454975004,-0.040743279500000326,-0.008787148250000145,-0.006966491000000019
172,0.7983443045600325,8.977572952116361,5.733333333333333,187.64095436758333,130.67886725566666,253.52197260541666,0.0,0.0,0.0,81.17325580866667,0.0,174.66924068583333,229.10247121466668,130.67886725566666,253.52197260541666,0.003896789166666662,0.010954099499999845,-0.01079344699999987,-0.004181738500000047,-0.0028367897499999703,0.005898346500000102,0.2905416430833416,0.46550422358333643,2.9143966863333324,-0.018216317833333072,0.009223529499999866,0.007495915500000042,0.9511310734166565,0.8942072502499746,-3.0758813752499448,0.017105946083333004,0.006285209333333338,-0.002049920000000041
173,0.7983443045600325,8.977572952116361,5.766666666666667,187.60664853942697,130.44269123761188,253.1479399157958,0.0,0.0,0.0,81.17420381840759,0.0,174.02491657084522,229.50067644017201,130.44269123761188,253.1479399157958,0.0010510368351750732,-0.002750760871376864,0.005891363318165845,0.0019424535893461398,-0.002514110255512853,-0.006532275213760681,-0.7242780267680083,0.2979067530376492,1.702399752587629,0.010648191676250224,-0.006348699351634167,0.005671583279163915,0.008343198776604444,1.0351871755754427,-2.6784074440388848,0.004540200793373434,-0.011452313532343321,0.006707490507858668
174,0.8079892923211673,8.965212960719668,5.8,187.538,130.4977002128,253.9551482731,0.0,0.0,0.0,81.1751521707,0.0,173.380587023,229.49304006970002,130.4977002128,253.9551482731,-0.005222326100000047,-0.005936077200000033,-0.008735021499999992,0.0012688933000000093,-0.010900368700000048,0.0076800417000000495,0.27783311809999905,-0.46235840010000234,-0.15155741210000243,0.008445088200000098,-0.0014397990000000265,0.0018798010000000182,-0.009143415400001775,-0.5371731419000003,-0.5836444645,-0.025781224400000097,0.005774279800000014,0.0012230260999999997
175,0.8079892923211673,8.965212960719668,5.833333333333333,187.538,130.8598266411,252.97031134976672,0.0,0.0,0.0,81.17609983706666,0.0,172.73626968936668,229.1012691633,130.8598266411,252.97031134976672,0.0021931643333336324,-0.0006761805666664657,-0.011959585966666672,0.00036758673333326134,0.0021404251000001484,-0.0035904720333335555,0.3725777348666741,0.48097022600000006,0.8381807990666665,-0.021254504500000257,0.007922413200000034,-0.004548928933333357,0.5486339179666707,-0.22988268486667074,-0.5097103772333349,0.02452797879999971,-1.9360933333331747e-05,-0.0023569827333332375
176,0.7894935040482096,8.968971353350526,5.866666666666666,187.53933419970002,130.93656999933333,251.2762878873666,0.0,0.0,0.0,81.17704783736666,0.0,172.09195268966667,229.56017878749998,130.93656999933333,251.2762878873666,0.008502900333333913,-0.002398840266666862,-0.006801189233332922,9.805839999988655e-05,-0.0017286232666667782,0.0007633278333329064,0.12629742846667888,-1.4673455903000487,-0.42093874723336366,0.026102812966666545,-0.004241688233333296,-0.009241355233334293,-0.6074400046000039,-0.35568856936669574,-0.9336944831000181,-0.009610225633332383,0.008516229166666927,0.00015302933333325895
177,0.7894935040482096,8.968971353350526,5.9,187.4010464862,130.4477296831,252.5957256962,0.0,0.0,0.0,81.1779961707,0.0,171.447636023,229.561227713,130.4477296831,252.5957256962,-0.0063149155000000335,0.00758561920000002,-0.006434429799999988,0.007136801900000019,0.0053866909000000185,0.008989892000000001,-0.29561798910000087,0.5717047999000003,-0.350362763799995,-0.007228934299999926,-0.005804868500000043,0.01033629920000003,-0.27117682050000147,-0.01817153049999887,0.1890048373999977,-0.008216682900000077,-0.01611234140000002,0.0036501699999999903
178,0.7936680932687068,8.969328982335924,5.933333333333334,187.4420002,130.28619156903335,254.6294652003,0.0,0.0,0.0,81.17894383706667,0.0,170.80331868936665,228.2593635602,130.28619156903335,254.6294652003,0.0021843674666666858,-0.0029164886333333234,0.00999053099999992,-0.0007762645999999979,-0.007583706333333314,-0.004685322533333286,0.35488369469999886,0.5486128659999996,-1.8240857537333355,-0.02073768480000006,0.01556558756666665,-0.001825256533333334,0.1251862120000007,-0.7237302174999991,1.4204372861333323,0.019489497000000012,0.01229912783333326,0.013204210366666646
179,0.7936680932687068,8.969328982335924,5.966666666666667,187.45,130.67594102576666,251.68351433936667,0.0,0.0,0.0,81.17989183736667,0.0,170.15900168966667,228.98156323860002,130.67594102576666,251.68351433936667,0.00169420870000005,-0.0003880848999998805,0.015951261233333493,-0.0017696309999999848,-0.005915774299999907,-0.004873716200000112,0.2612761963333269,0.8397421475333373,-1.0232849082999902,0.032010366499999936,-0.008216875166667045,0.009646902033333151,0.15324300956666545,-0.11950859116667725,-0.4485484833000197,-0.01662457656666658,0.0005659657999996272,-0.00152105573333324
180,0.7882287542133781,8.965029676947665,6.0,187.6439212234,130.9156251648,250.8642734067,0.0,0.0,0.0,81.18074090430001,0.0,169.5289686583999,229.1141928227,130.9156251648,250.8642734067,0.0067270659000000154,-0.0005087022999999942,0.011484220799999998,0.003358505300000004,-0.011014037800000025,0.006633891800000009,-0.21852194380000034,0.5291401911000023,-1.0135889220000003,-0.010897007899999934,0.0016675168999999463,0.0027293092999999976,0.6955414538000022,-0.44184436220000034,-3.6565786688000084,0.011762201400000005,8.803559999996678e-05,0.0059445645000000364
181,0.7882287542133781,8.965029676947665,6.033333333333333,187.52866763183334,130.9035568438,252.73566000643333,0.0,0.0,0.0,80.8416610148,0.0,216.63962703783335,228.55357773673333,130.9035568438,252.73566000643333,0.0002206390666666669,0.0006505740999999867,0.008079470933333348,0.0013098200000000015,-0.0023408721333333287,-0.012195808499999943,-0.03623587963333351,0.24390978066666447,-0.7696373611000006,-0.009636096666666767,0.007438827900000059,0.008740907066666649,-0.45955871736666576,0.023564757733331998,1.2330402957333275,0.0007392389000000308,0.004523946400000032,-0.002337743766666691
182,0.7936291742404364,8.971551202056617,6.066666666666666,187.39667586216666,130.51701772036665,253.7652407926,0.0,0.0,0.0,80.81952234843334,0.0,216.3879857048,228.69145218303333,130.51701772036665,253.7652407926,0.0002103143666666614,-0.003595285933333334,0.0014909833666666055,0.0037593156333333333,-0.010114980566666673,0.0021204449999999543,-0.2667125622000003,-0.050549187633333395,0.14642225196666137,0.017720994366666697,-0.014977055033333367,-0.006202468466666677,-0.8789521388333335,-0.8735927450666671,1.2329700659666654,-0.006195754300000002,-0.008844097066666704,-0.005910241366666654
183,0.7936291742404364,8.971551202056617,6.1,187.44900000029997,130.3861018997,253.39408757040002,0.0,0.0,0.0,80.7973840151,0.0,216.1363447045,228.4046295988,130.3861018997,253.39408757040002,0.0003793763000000052,-0.0017565729000000366,0.010783829800000068,0.007355041500000033,-0.002952749099999994,0.0030868108999999684,0.14648604190000022,0.5714725370000014,2.058342865700003,-0.01026638319999998,0.01995838860000003,-0.008026364200000021,-0.19417248210000007,-0.5039400479000012,1.5000395211000062,0.001621395699999972,0.017690823700000035,0.011218153600000048
184,0.8068187501700095,8.96059413159594,6.133333333333334,187.63501002673334,130.54433651866668,252.2910423092667,0.0,0.0,0.0,80.77524501479999,0.0,215.8847037048,229.08765578753335,130.54433651866668,252.2910423092667,-0.0050865237000001385,0.0014901580333328644,-0.00072493049999936,-0.007311997233333394,0.0028914181666670055,-0.005314824433334191,0.15637635660000393,-0.358554991366681,0.23362234343331179,-0.008200832133332926,-0.0060609570666672365,-0.0036349755000001788,-0.010858979966660354,0.19011793170000726,-1.803902375966702,0.0034974207666662836,-0.007643802366667131,-0.004327562733333173
185,0.8068187501700095,8.96059413159594,6.166666666666667,187.70731690690002,130.62432689866665,253.09890947363334,0.0,0.0,0.0,80.75310634843333,0.0,215.63306237116666,229.06771865076666,130.62432689866665,253.09890947363334,0.000502875333333397,0.0005357894333331871,0.0007999315000004059,-0.0021255138000000626,0.001929417133333419,0.008218564266666825,-0.10997629043333668,-0.035604693933326215,0.6884954139666839,0.023494190699999678,0.0013262388000002557,0.004265122933333366,-0.22790233659999926,-0.5710527101999885,-0.6168644124999642,-0.00798259646666654,0.0006072630333334951,0.006207371533333294
186,0.7953602080029896,8.964930685681338,6.2,187.5320466862,130.359000296,252.8100806134,0.0,0.0,0.0,80.73096801509999,0.0,215.38142170449999,228.6053620131,130.359000296,252.8100806134,0.005924558500000037,-0.00455230139999999,-0.0004212027000000148,0.0031164402000000047,0.0030786633000000193,-0.00010767059999997802,-0.026971863400000462,0.2643541675000012,1.6508653113000045,-0.019808886300000026,-0.007993440099999997,-0.005156922900000001,-0.3061473916000012,-0.5706634702000034,1.7406443954000097,0.007342946100000034,0.008204487500000046,-0.004615891200000008
187,0.7953602080029896,8.964930685681338,6.233333333333333,187.4609845135,130.62934501143334,252.6586362195,0.0,0.0,0.0,80.70882968176667,0.0,215.12978003783334,228.6791880837,130.62934501143334,252.6586362195,-0.005518489800000012,-0.004248912900000017,-7.120316666664635e-05,0.002823707399999994,-0.0012024232000000133,-0.010789134933333326,-0.025836964633332654,-0.25449312033333316,0.34166387823333144,0.014212302266666577,0.002028500833333292,0.0012007440999999763,0.32743273619999946,1.1381948083999986,-2.0853613331000003,-0.004815392500000005,-0.005320821100000018,0.0026065866999999874
188,0.7911565680046806,8.960490390722953,6.266666666666667,187.36001132823333,131.04632777803334,253.1323814511,0.0,0.0,0.0,80.68669034843333,0.0,214.87813937116667,229.5424464083,131.04632777803334,253.1323814511,0.00038081736666664874,-0.0035818151000000433,0.0013395771333332973,8.977663333334602e-05,-0.008891678599999994,0.003130347999999972,-0.1658714792333334,-0.5767489316333336,-0.9705208257333345,-0.003182582966666619,0.004423382333333341,-0.0026244945666666765,-0.1456063973000002,-1.041582549099999,-0.1893900300000001,0.006993781200000068,0.008069034133333352,0.007725637933333339
189,0.7911565680046806,8.960490390722953,6.3,186.7081939418,130.63005027970001,252.8461972076,0.0,0.0,0.0,80.6645520151,0.0,214.6264977048,229.44698437920002,130.63005027970001,252.8461972076,-0.005257243899999998,-0.007050910700000033,0.0006112973999999314,0.0020098059999999847,0.007013433100000013,-0.017550107000000016,-0.33528695660000146,0.05613531850000001,0.2751275448999988,-0.013335235500000047,-0.0068526461000000365,0.0028904099999999882,-0.23897481279999927,-0.3940282625999994,1.9606800702999987,-0.008866713900000036,-0.006535060500000017,0.00026328909999998935
190,0.7956044368461335,8.956588898148539,6.333333333333333,184.5836778183334,130.3202981628,252.10904222223334,0.0,0.0,0.0,80.64241368176667,0.0,214.37485703783335,228.52846071916667,130.3202981628,252.10904222223334,0.0010378637666664829,-0.0024160445999997678,-0.004917923799999141,-0.001345549533333091,0.0005040873666667001,-0.011760900066666653,0.27920119706666613,-0.08100249723332992,2.003458576533301,0.008478504833333265,0.006138650833333373,0.00153561053333349,0.295723961133312,0.030383543133315927,-0.577131946299922,0.004678334866666686,0.004049853999999893,0.0011861495666667535
191,0.7956044368461335,8.956588898148539,6.366666666666666,183.90623116376662,130.3612036909333,253.2655774834333,0.0,0.0,0.0,80.62027434843334,0.0,214.1232157048,228.36368537506667,130.3612036909333,253.2655774834333,-0.0016755192999999445,-0.0006373040333334432,-0.0004954649333332125,0.0029335586999997263,0.003933901699999797,-0.001592798966666973,-0.2150266993666548,-0.19460942376667,0.5542550628666826,0.0020119251000007554,-0.007962982333333049,0.007901858733333704,0.6404081418333486,0.43380262950000903,-1.7350208480000349,-0.00011454870000058258,0.0002830139666668435,0.002753434333333215
192,0.7983742191868259,8.954589253148697,6.4,185.3308040588,130.66839669089998,255.01309207190002,0.0,0.0,0.0,80.5981360151,0.0,213.8715747045,228.8729359471,130.66839669089998,255.01309207190002,0.0023861142000000156,-0.005725868200000017,-0.001970506699999996,0.0010332890999999894,0.013223493100000037,-0.016102067400000017,0.14033486789999958,-0.26456920269999956,0.13464190020000139,-0.008527521900000036,0.003953021100000008,-0.003007608600000011,-0.4503252356999985,-1.0021514350000003,-0.09056269080000957,-0.0008490632999999748,-0.0034496040000000032,-0.004112769100000035
193,0.7983742191868259,8.954589253148697,6.433333333333334,185.331,130.70279645760002,250.63623319896666,0.0,0.0,0.0,80.57599768176667,0.0,213.6199337048,228.56765782576667,130.70279645760002,250.63623319896666,-0.006786632633333322,0.00727998803333331,-0.012594352433333303,0.005136246633333334,0.0013890988666666545,-0.001966538600000029,0.0630434910000009,-0.09276714516666795,1.0860842527333276,0.0029114331000000128,-0.0009564076666666605,0.000802628300000003,-0.4884596730666688,0.0125351027999967,3.0125586197000027,0.0016827302999999523,0.0027775407333333153,0.004861028133333353
194,0.8081457957745215,8.938709208225987,6.466666666666667,185.331,130.69064169136666,252.39087608583336,0.0,0.0,0.0,80.55385834843334,0.0,213.36829237116666,228.4508117129,130.69064169136666,252.39087608583336,-0.0010850639333331987,-0.003708224399999886,-0.000582271099999929,0.003873526200000145,0.0027248735666665935,0.002187724533333226,-0.1803852236333386,-0.06463060013333183,1.266888200366669,-0.005487119033333118,-0.0036953499333332927,0.0027943160666667344,0.7414197951000028,1.0226957560333474,-2.665983242500009,-0.0025469490333334408,-0.007117549900000022,0.003984288566666569
195,0.8081457957745215,8.938709208225987,6.5,185.331,130.4259957109,254.66749285760002,0.0,0.0,0.0,80.53172001509999,0.0,213.1166517045,229.0497742366,130.4259957109,254.66749285760002,0.003871518399999996,-0.0033266509000000107,0.002847711600000019,-0.0024450895000000072,0.012901319700000038,-0.00659047100000007,-0.16193421930000124,-0.22062428580000001,-0.3472769582000001,0.017557828600000065,-0.003147854600000009,-0.007823254100000022,0.0985376130000018,0.7527979356000049,0.25216629950000025,0.014195872199999977,0.0017404556999999715,-0.0031665352000000203
196,0.8112303401851477,8.940453556274747,6.533333333333333,185.331,130.67375959306665,252.4112233552,0.0,0.0,0.0,80.50958168176666,0.0,212.86501003783334,228.86130565176666,130.67375959306665,252.4112233552,-0.0009212661333333092,0.0013764266333333324,-0.004852700266666667,0.0005163006333333336,0.0049557746333333055,0.005308234766666729,0.5117928715333326,-0.23328626469999994,-0.5286247867666659,-0.005109948000000016,0.0015433932999999967,-9.097113333332834e-05,-0.7588218043999995,-0.9121122717333344,1.929776601299993,0.005652852300000066,-0.004323907399999934,-0.005892587266666625
197,0.8112303401851477,8.940453556274747,6.566666666666666,185.331,130.7905541706,253.1231378261,0.0,0.0,0.0,80.4874430148,0.0,212.61336937116667,228.08433176846668,130.7905541706,253.1231378261,-0.004343839200000026,0.002344477566666685,-0.005606068800000033,-0.001968650266666675,-0.002611481233333332,0.0029184692666666683,-0.05314134793333243,-0.0867669917333322,0.9825029028999988,0.00248908013333336,-0.0024119587333333694,-0.0070947825666666745,0.20068968593333178,0.3482063722999975,-0.4678820388999909,-0.00024312896666673668,-0.00011432820000004638,-0.00717395783333337
198,0.8093861261994562,8.930886516242822,6.6,185.331,130.5592440859,250.97925735720003,0.0,0.0,0.0,80.46530401509999,0.0,212.3617287045,228.77460187149998,130.5592440859,250.97925735720003,-0.005016339200000014,-0.002438611300000011,0.004454727800000044,-0.003899372299999997,-0.0016711516999999905,-0.016249455300000038,-0.2996665895000005,-0.04419834190000039,0.17340420280000007,0.0019497249999999857,-0.0009596009999999785,0.001177397900000005,0.5611180401000013,1.0586885757000017,-1.9812523581000072,0.00971715690000005,-0.0031850194999999996,-0.009606684899999994
199,0.8093861261994562,8.930886516242822,6.633333333333334,185.331,131.13741685863334,247.52311001439992,0.0,0.0,0.0,80.44316568176667,0.0,212.11008703783335,231.73976235770007,131.13741685863334,247.52311001439992,-0.0007005481000000497,-0.0036442904666669045,0.005691125166667432,0.0025741364666669814,-0.002809118933333224,0.01093308136666716,0.17431631746667753,0.28963689026667394,-1.1045878218667173,-0.002001696233333728,-0.0005142344333329621,-0.005310349033333516,-0.13514074663334025,-0.1586875153333533,1.1315628308666739,-0.0007366106666662989,-0.0006561666333332276,-0.0036086088333329974
200,0.8216463795833988,8.925651554858632,6.666666666666667,185.331,129.4702088481333,266.22837195456697,0.0,0.0,0.0,80.4210270148,0.0,211.85844637116665,236.35832147333338,129.4702088481333,266.22837195456697,0.0023728319666666735,0.007060435366666534,-0.012835037066666723,0.0028576714000000275,0.001739081633333323,-0.007921791733333352,0.3481757419666759,0.3874564006666667,2.5984470435334286,-0.00041191659999987315,0.008074333199999931,0.002757613899999984,-0.3092066064666702,-0.4921131190333302,1.2779175264666638,-0.0009916165999999842,0.0015926964666665043,8.874176666675204e-05
201,0.8216463795833988,8.925651554858632,6.7,185.3310508443,125.56981435089999,302.41236624550004,0.0,0.0,0.0,80.3988880151,0.0,211.6068047048,235.63974078290002,125.56981435089999,302.41236624550004,0.0054284696000000045,0.009271602700000044,-0.011149831000000018,-0.0008641288000000319,0.0030523050999999727,0.01133545219999998,-0.2406842727000026,-1.7764600079000037,3.628430630500005,-0.016906367200000046,-0.008813380100000021,-0.010762969100000025,0.07832907209999848,0.5532594284999993,-0.19280124829999346,0.014688940600000049,-0.0018824073999999967,0.00826641220000002
202,0.8427455086873579,8.903830793434281,6.733333333333333,187.66246612236665,127.56485886363332,282.76815722940006,0.0,0.0,0.0,80.37674968176667,0.0,211.35516403783333,231.52636135420002,127.56485886363332,282.76815722940006,-0.0014339583666666475,-0.007278020766666672,-0.002107183700000007,0.003070634066666699,0.006914116433333361,0.016748425866666677,1.600905272166664,-2.313422348833326,-3.6748996760999804,0.013063037299999957,0.001899224933333326,-0.0017341484666666628,0.3651012560666679,0.6606377462000006,-0.630071872866675,-0.019155807666666615,0.005828078799999966,-0.007146720666666641
203,0.8427455086873579,8.903830793434281,6.766666666666667,188.742,129.9025634551,259.91139206836664,0.0,0.0,0.0,80.3546110148,0.0,211.1035227048,231.56907695876666,129.9025634551,259.91139206836664,0.005632371100000021,0.0010857089333333302,-0.006589414499999963,-0.00043028799999999764,0.004039189133333367,0.008318357766666602,0.3610775566333354,1.01512339236666,-0.004261553033339527,-0.01157840926666662,0.005960305866666628,-0.001782877333333337,-0.4995582035333334,-0.46402460099999937,1.570458344833333,0.014528299266666603,-0.0030551399333333183,0.0055086547666666754
204,0.8447623431512739,8.91106243793456,6.8,188.742,131.38767482509124,251.57026670183512,0.0,0.0,0.0,80.33247201490074,0.0,210.8518817022351,230.75352114285715,131.38767482509124,251.57026670183512,0.007414964398219928,0.016285365318265993,0.0023563560178008706,-0.002298734236711846,0.004605444422221124,-0.005797189759487997,-0.7179021542577135,-2.0192320244012185,-2.420284983199156,0.004445042702135073,0.007979550127506405,0.010841583479173996,0.015852363418169434,0.4058715178258906,0.3172013393669773,0.00426988584429229,0.007006390269513464,-0.003871158857942871
205,0.8447623431512739,8.91106243793456,6.833333333333333,188.742,131.87224809028334,233.05911512996676,0.0,0.0,0.0,80.31033301761667,0.0,210.6002331556,228.79199998608334,131.87224809028334,233.05911512996676,-0.004403308816666589,-0.003797358616666852,-0.007540979466666393,-0.0008411149666666241,-0.0028198430166666323,-0.003259248566666562,0.18441127326665674,-0.5112265998166987,-1.2838163286333777,-0.0018850567666663619,0.0001152387333332775,0.00016245188333327033,0.4144636314333363,0.600962258716668,-1.9206367463000211,-0.017584865233333465,0.0016844432666668213,-0.003083730316666842
